onset	duration	sample	trial_type	response_time	stim_file	item_name	serialpos	recalled	list	test	answer	stimulation	stim_list	stim_duration	anode_label	cathode_label	amplitude	pulse_freq	n_pulses	pulse_width	experiment	session	subject
0.0	0.0	12537	STIM_ON	n/a	n/a	n/a	-999	0	-999	[0, 0, 0]	n/a	1	0	500	LTCG29	LTCG30	250.0	200	100	300	FR3	0	R1154D
0.5	7.512	13037	STIM_OFF	n/a	n/a	n/a	-999	0	-999	[0, 0, 0]	n/a	0	0	500	LTCG29	LTCG30	250.0	200	100	300	FR3	0	R1154D
8.012	0.0	20548	STIM_ON	n/a	n/a	n/a	-999	0	-999	[0, 0, 0]	n/a	1	0	500	LTCG29	LTCG30	500.0	200	100	300	FR3	0	R1154D
8.512	6.827	21048	STIM_OFF	n/a	n/a	n/a	-999	0	-999	[0, 0, 0]	n/a	0	0	500	LTCG29	LTCG30	500.0	200	100	300	FR3	0	R1154D
15.339	0.0	27875	STIM_ON	n/a	n/a	n/a	-999	0	-999	[0, 0, 0]	n/a	1	0	500	LTCG29	LTCG30	750.0	200	100	300	FR3	0	R1154D
15.839	7.123	28375	STIM_OFF	n/a	n/a	n/a	-999	0	-999	[0, 0, 0]	n/a	0	0	500	LTCG29	LTCG30	750.0	200	100	300	FR3	0	R1154D
22.962	0.0	35498	STIM_ON	n/a	n/a	n/a	-999	0	-999	[0, 0, 0]	n/a	1	0	500	LTCG29	LTCG30	1000.0	200	100	300	FR3	0	R1154D
23.462	7.507	35997	STIM_OFF	n/a	n/a	n/a	-999	0	-999	[0, 0, 0]	n/a	0	0	500	LTCG29	LTCG30	1000.0	200	100	300	FR3	0	R1154D
30.969	0.0	43504	STIM_ON	n/a	n/a	n/a	-999	0	-999	[0, 0, 0]	n/a	1	0	500	LTCG29	LTCG30	1000.0	200	100	300	FR3	0	R1154D
31.469	12.096	44004	STIM_OFF	n/a	n/a	n/a	-999	0	-999	[0, 0, 0]	n/a	0	0	500	LTCG29	LTCG30	1000.0	200	100	300	FR3	0	R1154D
43.565	0.0	56099	INSTRUCT_START	n/a	n/a	n/a	-999	0	-999	[0, 0, 0]	n/a	0	0	0	n/a	n/a	0.0	0	0	0	FR3	0	R1154D
43.565	11.102	56099	INSTRUCT_END	n/a	n/a	n/a	-999	0	-999	[0, 0, 0]	n/a	0	0	0	n/a	n/a	0.0	0	0	0	FR3	0	R1154D
54.667	0.0	67201	SESS_START	n/a	n/a	n/a	-999	0	-999	[0, 0, 0]	n/a	0	0	0	n/a	n/a	0.0	0	0	0	FR3	0	R1154D
54.667	45.001	67201	MIC_TEST	n/a	n/a	n/a	-999	0	-999	[0, 0, 0]	n/a	0	0	0	n/a	n/a	0.0	0	0	0	FR3	0	R1154D
99.668	2.574	112199	PRACTICE_TRIAL	n/a	n/a	n/a	-999	0	-1	[0, 0, 0]	n/a	0	0	0	n/a	n/a	0.0	0	0	0	FR3	0	R1154D
102.242	10.0	114773	COUNTDOWN_START	n/a	n/a	n/a	-999	0	-1	[0, 0, 0]	n/a	0	0	0	n/a	n/a	0.0	0	0	0	FR3	0	R1154D
112.67	0.008	125201	COUNTDOWN_END	n/a	n/a	n/a	-999	0	-1	[0, 0, 0]	n/a	0	0	0	n/a	n/a	0.0	0	0	0	FR3	0	R1154D
112.678	1.6	125209	PRACTICE_ORIENT	n/a	n/a	n/a	-999	0	-1	[0, 0, 0]	n/a	0	0	0	n/a	n/a	0.0	0	0	0	FR3	0	R1154D
114.294	1.967	126825	PRACTICE_ORIENT_OFF	n/a	n/a	n/a	-999	0	-1	[0, 0, 0]	n/a	0	0	0	n/a	n/a	0.0	0	0	0	FR3	0	R1154D
116.261	1.6	128792	PRACTICE_WORD	n/a	n/a	COTTON	1	0	-1	[0, 0, 0]	n/a	0	0	0	n/a	n/a	0.0	0	0	0	FR3	0	R1154D
117.879	0.983	130409	PRACTICE_WORD_OFF	n/a	n/a	COTTON	-999	0	-1	[0, 0, 0]	n/a	0	0	0	n/a	n/a	0.0	0	0	0	FR3	0	R1154D
118.862	1.6	131392	PRACTICE_WORD	n/a	n/a	CHEST	2	0	-1	[0, 0, 0]	n/a	0	0	0	n/a	n/a	0.0	0	0	0	FR3	0	R1154D
120.479	0.85	133009	PRACTICE_WORD_OFF	n/a	n/a	CHEST	-999	0	-1	[0, 0, 0]	n/a	0	0	0	n/a	n/a	0.0	0	0	0	FR3	0	R1154D
121.329	1.6	133859	PRACTICE_WORD	n/a	n/a	ATTIC	3	0	-1	[0, 0, 0]	n/a	0	0	0	n/a	n/a	0.0	0	0	0	FR3	0	R1154D
122.946	0.934	135476	PRACTICE_WORD_OFF	n/a	n/a	ATTIC	-999	0	-1	[0, 0, 0]	n/a	0	0	0	n/a	n/a	0.0	0	0	0	FR3	0	R1154D
123.88	1.6	136410	PRACTICE_WORD	n/a	n/a	WATCH	4	0	-1	[0, 0, 0]	n/a	0	0	0	n/a	n/a	0.0	0	0	0	FR3	0	R1154D
125.497	0.782	138027	PRACTICE_WORD_OFF	n/a	n/a	WATCH	-999	0	-1	[0, 0, 0]	n/a	0	0	0	n/a	n/a	0.0	0	0	0	FR3	0	R1154D
126.279	1.6	138809	PRACTICE_WORD	n/a	n/a	IRON	5	0	-1	[0, 0, 0]	n/a	0	0	0	n/a	n/a	0.0	0	0	0	FR3	0	R1154D
127.88	0.934	140410	PRACTICE_WORD_OFF	n/a	n/a	IRON	-999	0	-1	[0, 0, 0]	n/a	0	0	0	n/a	n/a	0.0	0	0	0	FR3	0	R1154D
128.814	1.6	141344	PRACTICE_WORD	n/a	n/a	WAGON	6	0	-1	[0, 0, 0]	n/a	0	0	0	n/a	n/a	0.0	0	0	0	FR3	0	R1154D
130.431	0.917	142961	PRACTICE_WORD_OFF	n/a	n/a	WAGON	-999	0	-1	[0, 0, 0]	n/a	0	0	0	n/a	n/a	0.0	0	0	0	FR3	0	R1154D
131.348	1.6	143878	PRACTICE_WORD	n/a	n/a	CAMEL	7	0	-1	[0, 0, 0]	n/a	0	0	0	n/a	n/a	0.0	0	0	0	FR3	0	R1154D
132.965	0.8	145495	PRACTICE_WORD_OFF	n/a	n/a	CAMEL	-999	0	-1	[0, 0, 0]	n/a	0	0	0	n/a	n/a	0.0	0	0	0	FR3	0	R1154D
133.765	1.6	146295	PRACTICE_WORD	n/a	n/a	RING	8	0	-1	[0, 0, 0]	n/a	0	0	0	n/a	n/a	0.0	0	0	0	FR3	0	R1154D
135.382	0.95	147911	PRACTICE_WORD_OFF	n/a	n/a	RING	-999	0	-1	[0, 0, 0]	n/a	0	0	0	n/a	n/a	0.0	0	0	0	FR3	0	R1154D
136.332	1.6	148861	PRACTICE_WORD	n/a	n/a	BEAM	9	0	-1	[0, 0, 0]	n/a	0	0	0	n/a	n/a	0.0	0	0	0	FR3	0	R1154D
137.949	0.817	150478	PRACTICE_WORD_OFF	n/a	n/a	BEAM	-999	0	-1	[0, 0, 0]	n/a	0	0	0	n/a	n/a	0.0	0	0	0	FR3	0	R1154D
138.766	1.6	151295	PRACTICE_WORD	n/a	n/a	FLOOD	10	0	-1	[0, 0, 0]	n/a	0	0	0	n/a	n/a	0.0	0	0	0	FR3	0	R1154D
140.383	0.95	152912	PRACTICE_WORD_OFF	n/a	n/a	FLOOD	-999	0	-1	[0, 0, 0]	n/a	0	0	0	n/a	n/a	0.0	0	0	0	FR3	0	R1154D
141.333	1.6	153862	PRACTICE_WORD	n/a	n/a	RHINO	11	0	-1	[0, 0, 0]	n/a	0	0	0	n/a	n/a	0.0	0	0	0	FR3	0	R1154D
142.95	0.917	155479	PRACTICE_WORD_OFF	n/a	n/a	RHINO	-999	0	-1	[0, 0, 0]	n/a	0	0	0	n/a	n/a	0.0	0	0	0	FR3	0	R1154D
143.867	1.6	156396	PRACTICE_WORD	n/a	n/a	TONGUE	12	0	-1	[0, 0, 0]	n/a	0	0	0	n/a	n/a	0.0	0	0	0	FR3	0	R1154D
145.484	0.0	158013	PRACTICE_WORD_OFF	n/a	n/a	TONGUE	-999	0	-1	[0, 0, 0]	n/a	0	0	0	n/a	n/a	0.0	0	0	0	FR3	0	R1154D
145.484	0.0	158013	DISTRACT_START	n/a	n/a	n/a	-999	0	-1	[0, 0, 0]	n/a	0	0	0	n/a	n/a	0.0	0	0	0	FR3	0	R1154D
145.484	0.016	158013	START	n/a	n/a	n/a	-999	0	-1	[-999, -999, -999]	n/a	0	0	0	n/a	n/a	0.0	0	0	0	FR3	0	R1154D
145.5	4.468	158029	PROB	4.436	n/a	n/a	-999	0	-1	[5, 2, 4]	11	0	0	0	n/a	n/a	0.0	0	0	0	FR3	0	R1154D
149.968	1.834	162497	PROB	1.808	n/a	n/a	-999	0	-1	[1, 8, 1]	10	0	0	0	n/a	n/a	0.0	0	0	0	FR3	0	R1154D
151.802	4.433	164331	PROB	4.397	n/a	n/a	-999	0	-1	[9, 5, 7]	21	0	0	0	n/a	n/a	0.0	0	0	0	FR3	0	R1154D
156.235	1.751	168763	PROB	1.717	n/a	n/a	-999	0	-1	[5, 1, 8]	14	0	0	0	n/a	n/a	0.0	0	0	0	FR3	0	R1154D
157.986	2.116	170514	PROB	2.084	n/a	n/a	-999	0	-1	[8, 5, 3]	16	0	0	0	n/a	n/a	0.0	0	0	0	FR3	0	R1154D
160.102	3.034	172630	PROB	3.009	n/a	n/a	-999	0	-1	[2, 8, 9]	19	0	0	0	n/a	n/a	0.0	0	0	0	FR3	0	R1154D
163.136	2.457	175664	PROB	2.457	n/a	n/a	-999	0	-1	[3, 4, 2]	9	0	0	0	n/a	n/a	0.0	0	0	0	FR3	0	R1154D
165.593	0.011	178121	STOP	n/a	n/a	n/a	-999	0	-1	[-999, -999, -999]	n/a	0	0	0	n/a	n/a	0.0	0	0	0	FR3	0	R1154D
165.604	0.566	178132	DISTRACT_END	n/a	n/a	n/a	-999	0	-1	[0, 0, 0]	n/a	0	0	0	n/a	n/a	0.0	0	0	0	FR3	0	R1154D
166.17	0.5	178698	RETRIEVAL_ORIENT	n/a	n/a	n/a	-999	0	-1	[0, 0, 0]	n/a	0	0	0	n/a	n/a	0.0	0	0	0	FR3	0	R1154D
166.676	30.008	179204	PRACTICE_REC_START	n/a	n/a	n/a	-999	0	-1	[0, 0, 0]	n/a	0	0	0	n/a	n/a	0.0	0	0	0	FR3	0	R1154D
196.684	8.177	209210	PRACTICE_REC_END	n/a	n/a	n/a	-999	0	-1	[0, 0, 0]	n/a	0	0	0	n/a	n/a	0.0	0	0	0	FR3	0	R1154D
204.861	0.5	217387	TRIAL	n/a	n/a	n/a	-999	0	1	[0, 0, 0]	n/a	0	0	0	n/a	n/a	0.0	0	0	0	FR3	0	R1154D
205.361	10.0	217887	COUNTDOWN_START	n/a	n/a	n/a	-999	0	1	[0, 0, 0]	n/a	0	0	0	n/a	n/a	0.0	0	0	0	FR3	0	R1154D
215.789	0.008	228314	COUNTDOWN_END	n/a	n/a	n/a	-999	0	1	[0, 0, 0]	n/a	0	0	0	n/a	n/a	0.0	0	0	0	FR3	0	R1154D
215.797	1.6	228322	ORIENT	n/a	n/a	n/a	-999	0	1	[0, 0, 0]	n/a	0	0	0	n/a	n/a	0.0	0	0	0	FR3	0	R1154D
217.414	2.217	229939	ORIENT_OFF	n/a	n/a	n/a	-999	0	1	[0, 0, 0]	n/a	0	0	0	n/a	n/a	0.0	0	0	0	FR3	0	R1154D
219.631	1.6	232156	WORD	n/a	wordpools/wordpool.txt	EGG	1	1	1	[0, 0, 0]	n/a	0	0	0	n/a	n/a	0.0	0	0	0	FR3	0	R1154D
221.247	0.9	233772	WORD_OFF	n/a	n/a	EGG	1	0	1	[0, 0, 0]	n/a	0	0	0	n/a	n/a	0.0	0	0	0	FR3	0	R1154D
222.147	1.6	234672	WORD	n/a	wordpools/wordpool.txt	PIG	2	1	1	[0, 0, 0]	n/a	0	0	0	n/a	n/a	0.0	0	0	0	FR3	0	R1154D
223.765	0.983	236290	WORD_OFF	n/a	n/a	PIG	2	0	1	[0, 0, 0]	n/a	0	0	0	n/a	n/a	0.0	0	0	0	FR3	0	R1154D
224.748	1.6	237273	WORD	n/a	wordpools/wordpool.txt	HEN	3	0	1	[0, 0, 0]	n/a	0	0	0	n/a	n/a	0.0	0	0	0	FR3	0	R1154D
226.365	0.949	238890	WORD_OFF	n/a	n/a	HEN	3	0	1	[0, 0, 0]	n/a	0	0	0	n/a	n/a	0.0	0	0	0	FR3	0	R1154D
227.314	1.6	239839	WORD	n/a	wordpools/wordpool.txt	PET	4	1	1	[0, 0, 0]	n/a	0	0	0	n/a	n/a	0.0	0	0	0	FR3	0	R1154D
228.932	0.817	241456	WORD_OFF	n/a	n/a	PET	4	0	1	[0, 0, 0]	n/a	0	0	0	n/a	n/a	0.0	0	0	0	FR3	0	R1154D
229.749	1.6	242273	WORD	n/a	wordpools/wordpool.txt	MAZE	5	0	1	[0, 0, 0]	n/a	0	0	0	n/a	n/a	0.0	0	0	0	FR3	0	R1154D
231.366	1.017	243890	WORD_OFF	n/a	n/a	MAZE	5	0	1	[0, 0, 0]	n/a	0	0	0	n/a	n/a	0.0	0	0	0	FR3	0	R1154D
232.383	1.6	244907	WORD	n/a	wordpools/wordpool.txt	MILK	6	0	1	[0, 0, 0]	n/a	0	0	0	n/a	n/a	0.0	0	0	0	FR3	0	R1154D
234.0	0.983	246524	WORD_OFF	n/a	n/a	MILK	6	0	1	[0, 0, 0]	n/a	0	0	0	n/a	n/a	0.0	0	0	0	FR3	0	R1154D
234.983	1.6	247507	WORD	n/a	wordpools/wordpool.txt	SNAKE	7	0	1	[0, 0, 0]	n/a	0	0	0	n/a	n/a	0.0	0	0	0	FR3	0	R1154D
236.6	0.934	249124	WORD_OFF	n/a	n/a	SNAKE	7	0	1	[0, 0, 0]	n/a	0	0	0	n/a	n/a	0.0	0	0	0	FR3	0	R1154D
237.534	1.6	250058	WORD	n/a	wordpools/wordpool.txt	DART	8	1	1	[0, 0, 0]	n/a	0	0	0	n/a	n/a	0.0	0	0	0	FR3	0	R1154D
239.15	0.801	251674	WORD_OFF	n/a	n/a	DART	8	0	1	[0, 0, 0]	n/a	0	0	0	n/a	n/a	0.0	0	0	0	FR3	0	R1154D
239.951	1.6	252475	WORD	n/a	wordpools/wordpool.txt	JAIL	9	0	1	[0, 0, 0]	n/a	0	0	0	n/a	n/a	0.0	0	0	0	FR3	0	R1154D
241.568	0.9	254092	WORD_OFF	n/a	n/a	JAIL	9	0	1	[0, 0, 0]	n/a	0	0	0	n/a	n/a	0.0	0	0	0	FR3	0	R1154D
242.468	1.6	254992	WORD	n/a	wordpools/wordpool.txt	SHOE	10	0	1	[0, 0, 0]	n/a	0	0	0	n/a	n/a	0.0	0	0	0	FR3	0	R1154D
244.084	1.0	256608	WORD_OFF	n/a	n/a	SHOE	10	0	1	[0, 0, 0]	n/a	0	0	0	n/a	n/a	0.0	0	0	0	FR3	0	R1154D
245.084	1.6	257608	WORD	n/a	wordpools/wordpool.txt	COW	11	0	1	[0, 0, 0]	n/a	0	0	0	n/a	n/a	0.0	0	0	0	FR3	0	R1154D
246.702	0.767	259226	WORD_OFF	n/a	n/a	COW	11	0	1	[0, 0, 0]	n/a	0	0	0	n/a	n/a	0.0	0	0	0	FR3	0	R1154D
247.469	1.6	259992	WORD	n/a	wordpools/wordpool.txt	FARM	12	0	1	[0, 0, 0]	n/a	0	0	0	n/a	n/a	0.0	0	0	0	FR3	0	R1154D
249.085	0.0	261608	WORD_OFF	n/a	n/a	FARM	12	0	1	[0, 0, 0]	n/a	0	0	0	n/a	n/a	0.0	0	0	0	FR3	0	R1154D
249.085	0.001	261608	DISTRACT_START	n/a	n/a	n/a	-999	0	1	[0, 0, 0]	n/a	0	0	0	n/a	n/a	0.0	0	0	0	FR3	0	R1154D
249.086	0.016	261609	START	n/a	n/a	n/a	-999	0	1	[-999, -999, -999]	n/a	0	0	0	n/a	n/a	0.0	0	0	0	FR3	0	R1154D
249.102	2.568	261625	PROB	2.538	n/a	n/a	-999	0	1	[1, 7, 6]	14	0	0	0	n/a	n/a	0.0	0	0	0	FR3	0	R1154D
251.67	2.067	264193	PROB	2.042	n/a	n/a	-999	0	1	[2, 2, 3]	7	0	0	0	n/a	n/a	0.0	0	0	0	FR3	0	R1154D
253.737	2.7	266260	PROB	2.67	n/a	n/a	-999	0	1	[8, 5, 6]	19	0	0	0	n/a	n/a	0.0	0	0	0	FR3	0	R1154D
256.437	3.65	268960	PROB	3.627	n/a	n/a	-999	0	1	[5, 9, 3]	17	0	0	0	n/a	n/a	0.0	0	0	0	FR3	0	R1154D
260.087	4.167	272610	PROB	4.144	n/a	n/a	-999	0	1	[8, 9, 7]	24	0	0	0	n/a	n/a	0.0	0	0	0	FR3	0	R1154D
264.254	2.452	276777	PROB	2.418	n/a	n/a	-999	0	1	[4, 4, 8]	16	0	0	0	n/a	n/a	0.0	0	0	0	FR3	0	R1154D
266.706	2.589	279228	PROB	2.589	n/a	n/a	-999	0	1	[5, 3, 4]	12	0	0	0	n/a	n/a	0.0	0	0	0	FR3	0	R1154D
269.295	0.01	281817	STOP	n/a	n/a	n/a	-999	0	1	[-999, -999, -999]	n/a	0	0	0	n/a	n/a	0.0	0	0	0	FR3	0	R1154D
269.305	0.602	281827	DISTRACT_END	n/a	n/a	n/a	-999	0	1	[0, 0, 0]	n/a	0	0	0	n/a	n/a	0.0	0	0	0	FR3	0	R1154D
269.907	0.5	282429	RETRIEVAL_ORIENT	n/a	n/a	n/a	-999	0	1	[0, 0, 0]	n/a	0	0	0	n/a	n/a	0.0	0	0	0	FR3	0	R1154D
270.424	0.349	282946	REC_START	n/a	n/a	n/a	-999	0	1	[0, 0, 0]	n/a	0	0	0	n/a	n/a	0.0	0	0	0	FR3	0	R1154D
270.773	0.574	283295	REC_WORD_VV	0.349	n/a	<>	-999	0	1	[0, 0, 0]	n/a	0	0	0	n/a	n/a	0.0	0	0	0	FR3	0	R1154D
271.347	0.571	283869	REC_WORD	0.923	n/a	PET	4	1	1	[0, 0, 0]	n/a	0	0	0	n/a	n/a	0.0	0	0	0	FR3	0	R1154D
271.918	0.728	284440	REC_WORD	1.494	n/a	PIG	2	1	1	[0, 0, 0]	n/a	0	0	0	n/a	n/a	0.0	0	0	0	FR3	0	R1154D
272.646	2.856	285168	REC_WORD	2.222	n/a	EGG	1	1	1	[0, 0, 0]	n/a	0	0	0	n/a	n/a	0.0	0	0	0	FR3	0	R1154D
275.502	4.584	288024	REC_WORD	5.078	n/a	DART	8	1	1	[0, 0, 0]	n/a	0	0	0	n/a	n/a	0.0	0	0	0	FR3	0	R1154D
280.086	7.901	292608	REC_WORD_VV	9.662	n/a	<>	-999	0	1	[0, 0, 0]	n/a	0	0	0	n/a	n/a	0.0	0	0	0	FR3	0	R1154D
287.987	5.193	300508	REC_WORD_VV	17.563	n/a	<>	-999	0	1	[0, 0, 0]	n/a	0	0	0	n/a	n/a	0.0	0	0	0	FR3	0	R1154D
293.18	1.94	305701	REC_WORD_VV	22.756	n/a	<>	-999	0	1	[0, 0, 0]	n/a	0	0	0	n/a	n/a	0.0	0	0	0	FR3	0	R1154D
295.12	5.315	307641	REC_WORD_VV	24.696	n/a	<>	-999	0	1	[0, 0, 0]	n/a	0	0	0	n/a	n/a	0.0	0	0	0	FR3	0	R1154D
300.435	4.578	312956	REC_END	n/a	n/a	n/a	-999	0	1	[0, 0, 0]	n/a	0	0	0	n/a	n/a	0.0	0	0	0	FR3	0	R1154D
305.013	0.5	317533	TRIAL	n/a	n/a	n/a	-999	0	2	[0, 0, 0]	n/a	0	0	0	n/a	n/a	0.0	0	0	0	FR3	0	R1154D
305.513	10.0	318033	COUNTDOWN_START	n/a	n/a	n/a	-999	0	2	[0, 0, 0]	n/a	0	0	0	n/a	n/a	0.0	0	0	0	FR3	0	R1154D
315.941	0.007	328461	COUNTDOWN_END	n/a	n/a	n/a	-999	0	2	[0, 0, 0]	n/a	0	0	0	n/a	n/a	0.0	0	0	0	FR3	0	R1154D
315.948	1.6	328468	ORIENT	n/a	n/a	n/a	-999	0	2	[0, 0, 0]	n/a	0	0	0	n/a	n/a	0.0	0	0	0	FR3	0	R1154D
317.565	1.984	330085	ORIENT_OFF	n/a	n/a	n/a	-999	0	2	[0, 0, 0]	n/a	0	0	0	n/a	n/a	0.0	0	0	0	FR3	0	R1154D
319.549	1.6	332069	WORD	n/a	wordpools/wordpool.txt	BIRD	1	1	2	[0, 0, 0]	n/a	0	0	0	n/a	n/a	0.0	0	0	0	FR3	0	R1154D
321.165	0.801	333685	WORD_OFF	n/a	n/a	BIRD	1	0	2	[0, 0, 0]	n/a	0	0	0	n/a	n/a	0.0	0	0	0	FR3	0	R1154D
321.966	1.6	334485	WORD	n/a	wordpools/wordpool.txt	CLAY	2	1	2	[0, 0, 0]	n/a	0	0	0	n/a	n/a	0.0	0	0	0	FR3	0	R1154D
323.583	0.817	336102	WORD_OFF	n/a	n/a	CLAY	2	0	2	[0, 0, 0]	n/a	0	0	0	n/a	n/a	0.0	0	0	0	FR3	0	R1154D
324.4	1.6	336919	WORD	n/a	wordpools/wordpool.txt	BEAN	3	0	2	[0, 0, 0]	n/a	0	0	0	n/a	n/a	0.0	0	0	0	FR3	0	R1154D
326.016	0.868	338535	WORD_OFF	n/a	n/a	BEAN	3	0	2	[0, 0, 0]	n/a	0	0	0	n/a	n/a	0.0	0	0	0	FR3	0	R1154D
326.884	1.6	339403	WORD	n/a	wordpools/wordpool.txt	SEED	4	1	2	[0, 0, 0]	n/a	0	0	0	n/a	n/a	0.0	0	0	0	FR3	0	R1154D
328.501	0.916	341020	WORD_OFF	n/a	n/a	SEED	4	0	2	[0, 0, 0]	n/a	0	0	0	n/a	n/a	0.0	0	0	0	FR3	0	R1154D
329.417	1.6	341936	WORD	n/a	wordpools/wordpool.txt	PLANT	5	0	2	[0, 0, 0]	n/a	0	0	0	n/a	n/a	0.0	0	0	0	FR3	0	R1154D
331.033	0.968	343552	WORD_OFF	n/a	n/a	PLANT	5	0	2	[0, 0, 0]	n/a	0	0	0	n/a	n/a	0.0	0	0	0	FR3	0	R1154D
332.001	1.6	344520	WORD	n/a	wordpools/wordpool.txt	FRUIT	6	0	2	[0, 0, 0]	n/a	0	0	0	n/a	n/a	0.0	0	0	0	FR3	0	R1154D
333.618	0.884	346137	WORD_OFF	n/a	n/a	FRUIT	6	0	2	[0, 0, 0]	n/a	0	0	0	n/a	n/a	0.0	0	0	0	FR3	0	R1154D
334.502	1.6	347021	WORD	n/a	wordpools/wordpool.txt	ROOT	7	0	2	[0, 0, 0]	n/a	0	0	0	n/a	n/a	0.0	0	0	0	FR3	0	R1154D
336.118	0.916	348637	WORD_OFF	n/a	n/a	ROOT	7	0	2	[0, 0, 0]	n/a	0	0	0	n/a	n/a	0.0	0	0	0	FR3	0	R1154D
337.034	1.6	349553	WORD	n/a	wordpools/wordpool.txt	FOOD	8	0	2	[0, 0, 0]	n/a	0	0	0	n/a	n/a	0.0	0	0	0	FR3	0	R1154D
338.635	0.868	351154	WORD_OFF	n/a	n/a	FOOD	8	0	2	[0, 0, 0]	n/a	0	0	0	n/a	n/a	0.0	0	0	0	FR3	0	R1154D
339.503	1.6	352022	WORD	n/a	wordpools/wordpool.txt	FISH	9	0	2	[0, 0, 0]	n/a	0	0	0	n/a	n/a	0.0	0	0	0	FR3	0	R1154D
341.119	0.916	353637	WORD_OFF	n/a	n/a	FISH	9	0	2	[0, 0, 0]	n/a	0	0	0	n/a	n/a	0.0	0	0	0	FR3	0	R1154D
342.035	1.6	354553	WORD	n/a	wordpools/wordpool.txt	ANT	10	0	2	[0, 0, 0]	n/a	0	0	0	n/a	n/a	0.0	0	0	0	FR3	0	R1154D
343.653	0.767	356171	WORD_OFF	n/a	n/a	ANT	10	0	2	[0, 0, 0]	n/a	0	0	0	n/a	n/a	0.0	0	0	0	FR3	0	R1154D
344.42	1.6	356938	WORD	n/a	wordpools/wordpool.txt	STONE	11	0	2	[0, 0, 0]	n/a	0	0	0	n/a	n/a	0.0	0	0	0	FR3	0	R1154D
346.036	0.885	358554	WORD_OFF	n/a	n/a	STONE	11	0	2	[0, 0, 0]	n/a	0	0	0	n/a	n/a	0.0	0	0	0	FR3	0	R1154D
346.921	1.6	359439	WORD	n/a	wordpools/wordpool.txt	BEAK	12	0	2	[0, 0, 0]	n/a	0	0	0	n/a	n/a	0.0	0	0	0	FR3	0	R1154D
348.538	0.0	361056	DISTRACT_START	n/a	n/a	n/a	-999	0	2	[0, 0, 0]	n/a	0	0	0	n/a	n/a	0.0	0	0	0	FR3	0	R1154D
348.538	0.0	361056	WORD_OFF	n/a	n/a	BEAK	12	0	2	[0, 0, 0]	n/a	0	0	0	n/a	n/a	0.0	0	0	0	FR3	0	R1154D
348.538	0.016	361056	START	n/a	n/a	n/a	-999	0	2	[-999, -999, -999]	n/a	0	0	0	n/a	n/a	0.0	0	0	0	FR3	0	R1154D
348.554	27.492	361072	PROB	27.492	n/a	n/a	-999	0	2	[3, 4, 9]	16	0	0	0	n/a	n/a	0.0	0	0	0	FR3	0	R1154D
376.046	0.012	388563	STOP	n/a	n/a	n/a	-999	0	2	[-999, -999, -999]	n/a	0	0	0	n/a	n/a	0.0	0	0	0	FR3	0	R1154D
376.058	0.701	388575	DISTRACT_END	n/a	n/a	n/a	-999	0	2	[0, 0, 0]	n/a	0	0	0	n/a	n/a	0.0	0	0	0	FR3	0	R1154D
376.759	0.5	389276	RETRIEVAL_ORIENT	n/a	n/a	n/a	-999	0	2	[0, 0, 0]	n/a	0	0	0	n/a	n/a	0.0	0	0	0	FR3	0	R1154D
377.276	1.225	389793	REC_START	n/a	n/a	n/a	-999	0	2	[0, 0, 0]	n/a	0	0	0	n/a	n/a	0.0	0	0	0	FR3	0	R1154D
378.501	1.182	391017	REC_WORD_VV	1.225	n/a	<>	-999	0	2	[0, 0, 0]	n/a	0	0	0	n/a	n/a	0.0	0	0	0	FR3	0	R1154D
379.683	0.641	392199	REC_WORD_VV	2.407	n/a	<>	-999	0	2	[0, 0, 0]	n/a	0	0	0	n/a	n/a	0.0	0	0	0	FR3	0	R1154D
380.324	0.618	392840	REC_WORD	3.048	n/a	BIRD	1	1	2	[0, 0, 0]	n/a	0	0	0	n/a	n/a	0.0	0	0	0	FR3	0	R1154D
380.942	1.406	393458	REC_WORD_VV	3.666	n/a	<>	-999	0	2	[0, 0, 0]	n/a	0	0	0	n/a	n/a	0.0	0	0	0	FR3	0	R1154D
382.348	2.568	394864	REC_WORD	5.072	n/a	SEED	4	1	2	[0, 0, 0]	n/a	0	0	0	n/a	n/a	0.0	0	0	0	FR3	0	R1154D
384.916	0.974	397432	REC_WORD	7.64	n/a	SEED	4	1	2	[0, 0, 0]	n/a	0	0	0	n/a	n/a	0.0	0	0	0	FR3	0	R1154D
385.89	7.32	398406	REC_WORD	8.614	n/a	CLAY	2	1	2	[0, 0, 0]	n/a	0	0	0	n/a	n/a	0.0	0	0	0	FR3	0	R1154D
393.21	1.0	405726	REC_WORD_VV	15.934	n/a	<>	-999	0	2	[0, 0, 0]	n/a	0	0	0	n/a	n/a	0.0	0	0	0	FR3	0	R1154D
394.21	1.0	406726	REC_WORD_VV	16.934	n/a	<>	-999	0	2	[0, 0, 0]	n/a	0	0	0	n/a	n/a	0.0	0	0	0	FR3	0	R1154D
395.21	12.076	407726	REC_WORD_VV	17.934	n/a	<>	-999	0	2	[0, 0, 0]	n/a	0	0	0	n/a	n/a	0.0	0	0	0	FR3	0	R1154D
407.286	4.762	419801	REC_END	n/a	n/a	n/a	-999	0	2	[0, 0, 0]	n/a	0	0	0	n/a	n/a	0.0	0	0	0	FR3	0	R1154D
412.048	0.5	424563	TRIAL	n/a	n/a	n/a	-999	0	3	[0, 0, 0]	n/a	0	0	0	n/a	n/a	0.0	0	0	0	FR3	0	R1154D
412.548	10.0	425063	COUNTDOWN_START	n/a	n/a	n/a	-999	0	3	[0, 0, 0]	n/a	0	0	0	n/a	n/a	0.0	0	0	0	FR3	0	R1154D
422.976	0.008	435490	COUNTDOWN_END	n/a	n/a	n/a	-999	0	3	[0, 0, 0]	n/a	0	0	0	n/a	n/a	0.0	0	0	0	FR3	0	R1154D
422.984	1.6	435498	ORIENT	n/a	n/a	n/a	-999	0	3	[0, 0, 0]	n/a	0	0	0	n/a	n/a	0.0	0	0	0	FR3	0	R1154D
424.601	2.301	437115	ORIENT_OFF	n/a	n/a	n/a	-999	0	3	[0, 0, 0]	n/a	0	0	0	n/a	n/a	0.0	0	0	0	FR3	0	R1154D
426.902	1.6	439416	WORD	n/a	wordpools/wordpool.txt	SLEEVE	1	1	3	[0, 0, 0]	n/a	0	0	0	n/a	n/a	0.0	0	0	0	FR3	0	R1154D
428.519	0.933	441033	WORD_OFF	n/a	n/a	SLEEVE	1	0	3	[0, 0, 0]	n/a	0	0	0	n/a	n/a	0.0	0	0	0	FR3	0	R1154D
429.452	1.6	441966	WORD	n/a	wordpools/wordpool.txt	SKI	2	0	3	[0, 0, 0]	n/a	0	0	0	n/a	n/a	0.0	0	0	0	FR3	0	R1154D
431.068	0.885	443582	WORD_OFF	n/a	n/a	SKI	2	0	3	[0, 0, 0]	n/a	0	0	0	n/a	n/a	0.0	0	0	0	FR3	0	R1154D
431.953	1.6	444467	WORD	n/a	wordpools/wordpool.txt	SHARK	3	0	3	[0, 0, 0]	n/a	0	0	0	n/a	n/a	0.0	0	0	0	FR3	0	R1154D
433.57	0.983	446083	WORD_OFF	n/a	n/a	SHARK	3	0	3	[0, 0, 0]	n/a	0	0	0	n/a	n/a	0.0	0	0	0	FR3	0	R1154D
434.553	1.6	447066	WORD	n/a	wordpools/wordpool.txt	POND	4	0	3	[0, 0, 0]	n/a	0	0	0	n/a	n/a	0.0	0	0	0	FR3	0	R1154D
436.169	0.867	448682	WORD_OFF	n/a	n/a	POND	4	0	3	[0, 0, 0]	n/a	0	0	0	n/a	n/a	0.0	0	0	0	FR3	0	R1154D
437.036	1.6	449549	WORD	n/a	wordpools/wordpool.txt	CLOTH	5	0	3	[0, 0, 0]	n/a	0	0	0	n/a	n/a	0.0	0	0	0	FR3	0	R1154D
438.654	1.017	451167	WORD_OFF	n/a	n/a	CLOTH	5	0	3	[0, 0, 0]	n/a	0	0	0	n/a	n/a	0.0	0	0	0	FR3	0	R1154D
439.671	1.6	452184	WORD	n/a	wordpools/wordpool.txt	CRANE	6	0	3	[0, 0, 0]	n/a	0	0	0	n/a	n/a	0.0	0	0	0	FR3	0	R1154D
441.287	0.95	453800	WORD_OFF	n/a	n/a	CRANE	6	0	3	[0, 0, 0]	n/a	0	0	0	n/a	n/a	0.0	0	0	0	FR3	0	R1154D
442.237	1.6	454750	WORD	n/a	wordpools/wordpool.txt	FUR	7	0	3	[0, 0, 0]	n/a	0	0	0	n/a	n/a	0.0	0	0	0	FR3	0	R1154D
443.838	0.784	456351	WORD_OFF	n/a	n/a	FUR	7	0	3	[0, 0, 0]	n/a	0	0	0	n/a	n/a	0.0	0	0	0	FR3	0	R1154D
444.622	1.6	457135	WORD	n/a	wordpools/wordpool.txt	GOAT	8	1	3	[0, 0, 0]	n/a	0	0	0	n/a	n/a	0.0	0	0	0	FR3	0	R1154D
446.238	0.983	458751	WORD_OFF	n/a	n/a	GOAT	8	0	3	[0, 0, 0]	n/a	0	0	0	n/a	n/a	0.0	0	0	0	FR3	0	R1154D
447.221	1.6	459734	WORD	n/a	wordpools/wordpool.txt	DUCK	9	0	3	[0, 0, 0]	n/a	0	0	0	n/a	n/a	0.0	0	0	0	FR3	0	R1154D
448.822	1.001	461335	WORD_OFF	n/a	n/a	DUCK	9	0	3	[0, 0, 0]	n/a	0	0	0	n/a	n/a	0.0	0	0	0	FR3	0	R1154D
449.823	1.6	462336	WORD	n/a	wordpools/wordpool.txt	SHEEP	10	1	3	[0, 0, 0]	n/a	0	0	0	n/a	n/a	0.0	0	0	0	FR3	0	R1154D
451.44	0.966	463953	WORD_OFF	n/a	n/a	SHEEP	10	0	3	[0, 0, 0]	n/a	0	0	0	n/a	n/a	0.0	0	0	0	FR3	0	R1154D
452.406	1.6	464918	WORD	n/a	wordpools/wordpool.txt	MOUSE	11	0	3	[0, 0, 0]	n/a	0	0	0	n/a	n/a	0.0	0	0	0	FR3	0	R1154D
454.022	0.801	466534	WORD_OFF	n/a	n/a	MOUSE	11	0	3	[0, 0, 0]	n/a	0	0	0	n/a	n/a	0.0	0	0	0	FR3	0	R1154D
454.823	1.6	467335	WORD	n/a	wordpools/wordpool.txt	JEEP	12	0	3	[0, 0, 0]	n/a	0	0	0	n/a	n/a	0.0	0	0	0	FR3	0	R1154D
456.44	0.0	468952	WORD_OFF	n/a	n/a	JEEP	12	0	3	[0, 0, 0]	n/a	0	0	0	n/a	n/a	0.0	0	0	0	FR3	0	R1154D
456.44	0.001	468952	DISTRACT_START	n/a	n/a	n/a	-999	0	3	[0, 0, 0]	n/a	0	0	0	n/a	n/a	0.0	0	0	0	FR3	0	R1154D
456.441	0.016	468953	START	n/a	n/a	n/a	-999	0	3	[-999, -999, -999]	n/a	0	0	0	n/a	n/a	0.0	0	0	0	FR3	0	R1154D
456.457	2.401	468969	PROB	2.367	n/a	n/a	-999	0	3	[7, 4, 2]	13	0	0	0	n/a	n/a	0.0	0	0	0	FR3	0	R1154D
458.858	1.95	471370	PROB	1.927	n/a	n/a	-999	0	3	[1, 9, 7]	17	0	0	0	n/a	n/a	0.0	0	0	0	FR3	0	R1154D
460.808	1.8	473320	PROB	1.769	n/a	n/a	-999	0	3	[1, 4, 3]	8	0	0	0	n/a	n/a	0.0	0	0	0	FR3	0	R1154D
462.608	3.168	475120	PROB	3.129	n/a	n/a	-999	0	3	[5, 2, 3]	10	0	0	0	n/a	n/a	0.0	0	0	0	FR3	0	R1154D
465.776	2.217	478288	PROB	2.192	n/a	n/a	-999	0	3	[5, 7, 5]	16	0	0	0	n/a	n/a	0.0	0	0	0	FR3	0	R1154D
467.993	2.316	480505	PROB	2.285	n/a	n/a	-999	0	3	[3, 1, 6]	10	0	0	0	n/a	n/a	0.0	0	0	0	FR3	0	R1154D
470.309	2.018	482821	PROB	1.986	n/a	n/a	-999	0	3	[1, 8, 6]	15	0	0	0	n/a	n/a	0.0	0	0	0	FR3	0	R1154D
472.327	1.799	484838	PROB	1.775	n/a	n/a	-999	0	3	[2, 4, 2]	8	0	0	0	n/a	n/a	0.0	0	0	0	FR3	0	R1154D
474.126	3.961	486637	PROB	3.961	n/a	n/a	-999	0	3	[8, 9, 8]	25	0	0	0	n/a	n/a	0.0	0	0	0	FR3	0	R1154D
478.087	0.006	490598	STOP	n/a	n/a	n/a	-999	0	3	[-999, -999, -999]	n/a	0	0	0	n/a	n/a	0.0	0	0	0	FR3	0	R1154D
478.093	0.535	490604	DISTRACT_END	n/a	n/a	n/a	-999	0	3	[0, 0, 0]	n/a	0	0	0	n/a	n/a	0.0	0	0	0	FR3	0	R1154D
478.628	0.5	491139	RETRIEVAL_ORIENT	n/a	n/a	n/a	-999	0	3	[0, 0, 0]	n/a	0	0	0	n/a	n/a	0.0	0	0	0	FR3	0	R1154D
479.144	1.012	491655	REC_START	n/a	n/a	n/a	-999	0	3	[0, 0, 0]	n/a	0	0	0	n/a	n/a	0.0	0	0	0	FR3	0	R1154D
480.156	0.497	492667	REC_WORD	1.012	n/a	GOAT	8	1	3	[0, 0, 0]	n/a	0	0	0	n/a	n/a	0.0	0	0	0	FR3	0	R1154D
480.653	0.591	493164	REC_WORD	1.509	n/a	SHEEP	10	1	3	[0, 0, 0]	n/a	0	0	0	n/a	n/a	0.0	0	0	0	FR3	0	R1154D
481.244	27.913	493755	REC_WORD	2.1	n/a	SLEEVE	1	1	3	[0, 0, 0]	n/a	0	0	0	n/a	n/a	0.0	0	0	0	FR3	0	R1154D
509.157	4.126	521666	REC_END	n/a	n/a	n/a	-999	0	3	[0, 0, 0]	n/a	0	0	0	n/a	n/a	0.0	0	0	0	FR3	0	R1154D
513.283	0.5	525792	TRIAL	n/a	n/a	n/a	-999	0	4	[0, 0, 0]	n/a	0	0	0	n/a	n/a	0.0	0	0	0	FR3	0	R1154D
513.783	10.0	526292	COUNTDOWN_START	n/a	n/a	n/a	-999	0	4	[0, 0, 0]	n/a	0	0	0	n/a	n/a	0.0	0	0	0	FR3	0	R1154D
524.211	0.008	536720	COUNTDOWN_END	n/a	n/a	n/a	-999	0	4	[0, 0, 0]	n/a	0	0	0	n/a	n/a	0.0	0	0	0	FR3	0	R1154D
524.219	1.6	536728	ORIENT	n/a	n/a	n/a	-999	0	4	[0, 0, 0]	n/a	0	0	0	n/a	n/a	0.0	0	0	0	FR3	0	R1154D
525.837	2.067	538346	ORIENT_OFF	n/a	n/a	n/a	-999	0	4	[0, 0, 0]	n/a	0	0	0	n/a	n/a	0.0	0	0	0	FR3	0	R1154D
527.904	1.6	540412	WORD	n/a	wordpools/wordpool.txt	SAIL	1	1	4	[0, 0, 0]	n/a	0	0	0	n/a	n/a	0.0	0	0	0	FR3	0	R1154D
529.521	0.933	542029	WORD_OFF	n/a	n/a	SAIL	1	0	4	[0, 0, 0]	n/a	0	0	0	n/a	n/a	0.0	0	0	0	FR3	0	R1154D
530.454	1.6	542962	WORD	n/a	wordpools/wordpool.txt	POLE	2	0	4	[0, 0, 0]	n/a	0	0	0	n/a	n/a	0.0	0	0	0	FR3	0	R1154D
532.07	0.767	544578	WORD_OFF	n/a	n/a	POLE	2	0	4	[0, 0, 0]	n/a	0	0	0	n/a	n/a	0.0	0	0	0	FR3	0	R1154D
532.837	1.6	545345	WORD	n/a	wordpools/wordpool.txt	PLANE	3	0	4	[0, 0, 0]	n/a	0	0	0	n/a	n/a	0.0	0	0	0	FR3	0	R1154D
534.455	0.933	546963	WORD_OFF	n/a	n/a	PLANE	3	0	4	[0, 0, 0]	n/a	0	0	0	n/a	n/a	0.0	0	0	0	FR3	0	R1154D
535.388	1.6	547896	WORD	n/a	wordpools/wordpool.txt	BAT	4	0	4	[0, 0, 0]	n/a	0	0	0	n/a	n/a	0.0	0	0	0	FR3	0	R1154D
537.005	0.984	549513	WORD_OFF	n/a	n/a	BAT	4	0	4	[0, 0, 0]	n/a	0	0	0	n/a	n/a	0.0	0	0	0	FR3	0	R1154D
537.989	1.6	550497	WORD	n/a	wordpools/wordpool.txt	BOAT	5	0	4	[0, 0, 0]	n/a	0	0	0	n/a	n/a	0.0	0	0	0	FR3	0	R1154D
539.606	0.867	552114	WORD_OFF	n/a	n/a	BOAT	5	0	4	[0, 0, 0]	n/a	0	0	0	n/a	n/a	0.0	0	0	0	FR3	0	R1154D
540.473	1.6	552981	WORD	n/a	wordpools/wordpool.txt	WHEEL	6	0	4	[0, 0, 0]	n/a	0	0	0	n/a	n/a	0.0	0	0	0	FR3	0	R1154D
542.088	0.967	554596	WORD_OFF	n/a	n/a	WHEEL	6	0	4	[0, 0, 0]	n/a	0	0	0	n/a	n/a	0.0	0	0	0	FR3	0	R1154D
543.055	1.6	555563	WORD	n/a	wordpools/wordpool.txt	MAP	7	0	4	[0, 0, 0]	n/a	0	0	0	n/a	n/a	0.0	0	0	0	FR3	0	R1154D
544.673	1.0	557181	WORD_OFF	n/a	n/a	MAP	7	0	4	[0, 0, 0]	n/a	0	0	0	n/a	n/a	0.0	0	0	0	FR3	0	R1154D
545.673	1.6	558180	WORD	n/a	wordpools/wordpool.txt	SLUSH	8	0	4	[0, 0, 0]	n/a	0	0	0	n/a	n/a	0.0	0	0	0	FR3	0	R1154D
547.289	0.834	559796	WORD_OFF	n/a	n/a	SLUSH	8	0	4	[0, 0, 0]	n/a	0	0	0	n/a	n/a	0.0	0	0	0	FR3	0	R1154D
548.123	1.6	560630	WORD	n/a	wordpools/wordpool.txt	CORD	9	0	4	[0, 0, 0]	n/a	0	0	0	n/a	n/a	0.0	0	0	0	FR3	0	R1154D
549.741	0.9	562248	WORD_OFF	n/a	n/a	CORD	9	0	4	[0, 0, 0]	n/a	0	0	0	n/a	n/a	0.0	0	0	0	FR3	0	R1154D
550.641	1.6	563148	WORD	n/a	wordpools/wordpool.txt	WORM	10	0	4	[0, 0, 0]	n/a	0	0	0	n/a	n/a	0.0	0	0	0	FR3	0	R1154D
552.257	0.933	564764	WORD_OFF	n/a	n/a	WORM	10	0	4	[0, 0, 0]	n/a	0	0	0	n/a	n/a	0.0	0	0	0	FR3	0	R1154D
553.19	1.6	565697	WORD	n/a	wordpools/wordpool.txt	TOOL	11	0	4	[0, 0, 0]	n/a	0	0	0	n/a	n/a	0.0	0	0	0	FR3	0	R1154D
554.792	0.933	567299	WORD_OFF	n/a	n/a	TOOL	11	0	4	[0, 0, 0]	n/a	0	0	0	n/a	n/a	0.0	0	0	0	FR3	0	R1154D
555.725	1.6	568232	WORD	n/a	wordpools/wordpool.txt	COIN	12	1	4	[0, 0, 0]	n/a	0	0	0	n/a	n/a	0.0	0	0	0	FR3	0	R1154D
557.342	0.0	569849	WORD_OFF	n/a	n/a	COIN	12	0	4	[0, 0, 0]	n/a	0	0	0	n/a	n/a	0.0	0	0	0	FR3	0	R1154D
557.342	0.001	569849	DISTRACT_START	n/a	n/a	n/a	-999	0	4	[0, 0, 0]	n/a	0	0	0	n/a	n/a	0.0	0	0	0	FR3	0	R1154D
557.343	0.016	569850	START	n/a	n/a	n/a	-999	0	4	[-999, -999, -999]	n/a	0	0	0	n/a	n/a	0.0	0	0	0	FR3	0	R1154D
557.359	3.384	569866	PROB	3.361	n/a	n/a	-999	0	4	[9, 9, 7]	26	0	0	0	n/a	n/a	0.0	0	0	0	FR3	0	R1154D
560.743	2.333	573250	PROB	2.295	n/a	n/a	-999	0	4	[4, 7, 4]	15	0	0	0	n/a	n/a	0.0	0	0	0	FR3	0	R1154D
563.076	4.0	575583	PROB	3.962	n/a	n/a	-999	0	4	[8, 9, 6]	23	0	0	0	n/a	n/a	0.0	0	0	0	FR3	0	R1154D
567.076	1.752	579582	PROB	1.715	n/a	n/a	-999	0	4	[8, 5, 1]	14	0	0	0	n/a	n/a	0.0	0	0	0	FR3	0	R1154D
568.828	3.9	581334	PROB	3.877	n/a	n/a	-999	0	4	[6, 7, 5]	18	0	0	0	n/a	n/a	0.0	0	0	0	FR3	0	R1154D
572.728	1.667	585234	PROB	1.632	n/a	n/a	-999	0	4	[2, 1, 1]	4	0	0	0	n/a	n/a	0.0	0	0	0	FR3	0	R1154D
574.395	3.908	586901	PROB	3.908	n/a	n/a	-999	0	4	[9, 6, 4]	19	0	0	0	n/a	n/a	0.0	0	0	0	FR3	0	R1154D
578.303	0.009	590809	STOP	n/a	n/a	n/a	-999	0	4	[-999, -999, -999]	n/a	0	0	0	n/a	n/a	0.0	0	0	0	FR3	0	R1154D
578.312	0.584	590818	DISTRACT_END	n/a	n/a	n/a	-999	0	4	[0, 0, 0]	n/a	0	0	0	n/a	n/a	0.0	0	0	0	FR3	0	R1154D
578.896	0.5	591402	RETRIEVAL_ORIENT	n/a	n/a	n/a	-999	0	4	[0, 0, 0]	n/a	0	0	0	n/a	n/a	0.0	0	0	0	FR3	0	R1154D
579.414	0.863	591920	REC_START	n/a	n/a	n/a	-999	0	4	[0, 0, 0]	n/a	0	0	0	n/a	n/a	0.0	0	0	0	FR3	0	R1154D
580.277	3.584	592783	REC_WORD	0.863	n/a	SAIL	1	1	4	[0, 0, 0]	n/a	0	0	0	n/a	n/a	0.0	0	0	0	FR3	0	R1154D
583.861	25.562	596366	REC_WORD	4.447	n/a	COIN	12	1	4	[0, 0, 0]	n/a	0	0	0	n/a	n/a	0.0	0	0	0	FR3	0	R1154D
609.423	7.679	621927	REC_END	n/a	n/a	n/a	-999	0	4	[0, 0, 0]	n/a	0	0	0	n/a	n/a	0.0	0	0	0	FR3	0	R1154D
617.102	0.5	629606	TRIAL	n/a	n/a	n/a	-999	0	5	[0, 0, 0]	n/a	0	0	0	n/a	n/a	0.0	0	0	0	FR3	0	R1154D
617.602	10.0	630106	COUNTDOWN_START	n/a	n/a	n/a	-999	0	5	[0, 0, 0]	n/a	0	0	0	n/a	n/a	0.0	0	0	0	FR3	0	R1154D
628.03	0.008	640533	COUNTDOWN_END	n/a	n/a	n/a	-999	0	5	[0, 0, 0]	n/a	0	0	0	n/a	n/a	0.0	0	0	0	FR3	0	R1154D
628.038	1.6	640541	ORIENT	n/a	n/a	n/a	-999	0	5	[0, 0, 0]	n/a	0	0	0	n/a	n/a	0.0	0	0	0	FR3	0	R1154D
629.655	2.034	642158	ORIENT_OFF	n/a	n/a	n/a	-999	0	5	[0, 0, 0]	n/a	0	0	0	n/a	n/a	0.0	0	0	0	FR3	0	R1154D
631.689	1.6	644192	WORD	n/a	wordpools/wordpool.txt	WING	1	0	5	[0, 0, 0]	n/a	0	0	0	n/a	n/a	0.0	0	0	0	FR3	0	R1154D
633.305	0.967	645808	WORD_OFF	n/a	n/a	WING	1	0	5	[0, 0, 0]	n/a	0	0	0	n/a	n/a	0.0	0	0	0	FR3	0	R1154D
634.272	1.6	646775	WORD	n/a	wordpools/wordpool.txt	RAT	2	0	5	[0, 0, 0]	n/a	0	0	0	n/a	n/a	0.0	0	0	0	FR3	0	R1154D
635.89	0.85	648393	WORD_OFF	n/a	n/a	RAT	2	0	5	[0, 0, 0]	n/a	0	0	0	n/a	n/a	0.0	0	0	0	FR3	0	R1154D
636.74	1.6	649243	WORD	n/a	wordpools/wordpool.txt	GEESE	3	0	5	[0, 0, 0]	n/a	0	0	0	n/a	n/a	0.0	0	0	0	FR3	0	R1154D
638.357	0.782	650859	WORD_OFF	n/a	n/a	GEESE	3	0	5	[0, 0, 0]	n/a	0	0	0	n/a	n/a	0.0	0	0	0	FR3	0	R1154D
639.139	1.6	651641	WORD	n/a	wordpools/wordpool.txt	HORSE	4	0	5	[0, 0, 0]	n/a	0	0	0	n/a	n/a	0.0	0	0	0	FR3	0	R1154D
640.741	0.85	653243	WORD_OFF	n/a	n/a	HORSE	4	0	5	[0, 0, 0]	n/a	0	0	0	n/a	n/a	0.0	0	0	0	FR3	0	R1154D
641.591	1.6	654093	WORD	n/a	wordpools/wordpool.txt	ELF	5	0	5	[0, 0, 0]	n/a	0	0	0	n/a	n/a	0.0	0	0	0	FR3	0	R1154D
643.207	0.867	655709	WORD_OFF	n/a	n/a	ELF	5	0	5	[0, 0, 0]	n/a	0	0	0	n/a	n/a	0.0	0	0	0	FR3	0	R1154D
644.074	1.6	656576	WORD	n/a	wordpools/wordpool.txt	ICE	6	0	5	[0, 0, 0]	n/a	0	0	0	n/a	n/a	0.0	0	0	0	FR3	0	R1154D
645.692	0.883	658194	WORD_OFF	n/a	n/a	ICE	6	0	5	[0, 0, 0]	n/a	0	0	0	n/a	n/a	0.0	0	0	0	FR3	0	R1154D
646.575	1.6	659077	WORD	n/a	wordpools/wordpool.txt	ROCK	7	0	5	[0, 0, 0]	n/a	0	0	0	n/a	n/a	0.0	0	0	0	FR3	0	R1154D
648.191	0.801	660693	WORD_OFF	n/a	n/a	ROCK	7	0	5	[0, 0, 0]	n/a	0	0	0	n/a	n/a	0.0	0	0	0	FR3	0	R1154D
648.992	1.6	661494	WORD	n/a	wordpools/wordpool.txt	SOCK	8	0	5	[0, 0, 0]	n/a	0	0	0	n/a	n/a	0.0	0	0	0	FR3	0	R1154D
650.609	0.984	663111	WORD_OFF	n/a	n/a	SOCK	8	0	5	[0, 0, 0]	n/a	0	0	0	n/a	n/a	0.0	0	0	0	FR3	0	R1154D
651.593	1.6	664095	WORD	n/a	wordpools/wordpool.txt	SUN	9	0	5	[0, 0, 0]	n/a	0	0	0	n/a	n/a	0.0	0	0	0	FR3	0	R1154D
653.209	0.883	665711	WORD_OFF	n/a	n/a	SUN	9	0	5	[0, 0, 0]	n/a	0	0	0	n/a	n/a	0.0	0	0	0	FR3	0	R1154D
654.092	1.6	666594	WORD	n/a	wordpools/wordpool.txt	CONE	10	0	5	[0, 0, 0]	n/a	0	0	0	n/a	n/a	0.0	0	0	0	FR3	0	R1154D
655.71	0.934	668212	WORD_OFF	n/a	n/a	CONE	10	0	5	[0, 0, 0]	n/a	0	0	0	n/a	n/a	0.0	0	0	0	FR3	0	R1154D
656.644	1.6	669146	WORD	n/a	wordpools/wordpool.txt	BRIDGE	11	0	5	[0, 0, 0]	n/a	0	0	0	n/a	n/a	0.0	0	0	0	FR3	0	R1154D
658.26	0.983	670761	WORD_OFF	n/a	n/a	BRIDGE	11	0	5	[0, 0, 0]	n/a	0	0	0	n/a	n/a	0.0	0	0	0	FR3	0	R1154D
659.243	1.6	671744	WORD	n/a	wordpools/wordpool.txt	CALF	12	0	5	[0, 0, 0]	n/a	0	0	0	n/a	n/a	0.0	0	0	0	FR3	0	R1154D
660.861	0.0	673362	WORD_OFF	n/a	n/a	CALF	12	0	5	[0, 0, 0]	n/a	0	0	0	n/a	n/a	0.0	0	0	0	FR3	0	R1154D
660.861	0.001	673362	DISTRACT_START	n/a	n/a	n/a	-999	0	5	[0, 0, 0]	n/a	0	0	0	n/a	n/a	0.0	0	0	0	FR3	0	R1154D
660.862	0.016	673363	START	n/a	n/a	n/a	-999	0	5	[-999, -999, -999]	n/a	0	0	0	n/a	n/a	0.0	0	0	0	FR3	0	R1154D
660.878	3.333	673379	PROB	3.296	n/a	n/a	-999	0	5	[8, 7, 4]	19	0	0	0	n/a	n/a	0.0	0	0	0	FR3	0	R1154D
664.211	2.301	676712	PROB	2.269	n/a	n/a	-999	0	5	[6, 4, 7]	17	0	0	0	n/a	n/a	0.0	0	0	0	FR3	0	R1154D
666.512	3.267	679013	PROB	3.24	n/a	n/a	-999	0	5	[6, 8, 3]	17	0	0	0	n/a	n/a	0.0	0	0	0	FR3	0	R1154D
669.779	2.35	682280	PROB	2.316	n/a	n/a	-999	0	5	[7, 1, 4]	12	0	0	0	n/a	n/a	0.0	0	0	0	FR3	0	R1154D
672.129	2.967	684630	PROB	2.933	n/a	n/a	-999	0	5	[8, 6, 6]	2	0	0	0	n/a	n/a	0.0	0	0	0	FR3	0	R1154D
675.096	2.902	687597	PROB	2.872	n/a	n/a	-999	0	5	[2, 3, 5]	10	0	0	0	n/a	n/a	0.0	0	0	0	FR3	0	R1154D
677.998	2.099	690498	PROB	2.072	n/a	n/a	-999	0	5	[8, 3, 3]	14	0	0	0	n/a	n/a	0.0	0	0	0	FR3	0	R1154D
680.097	3.982	692597	PROB	3.982	n/a	n/a	-999	0	5	[5, 2, 4]	11	0	0	0	n/a	n/a	0.0	0	0	0	FR3	0	R1154D
684.079	0.019	696579	STOP	n/a	n/a	n/a	-999	0	5	[-999, -999, -999]	n/a	0	0	0	n/a	n/a	0.0	0	0	0	FR3	0	R1154D
684.098	0.601	696598	DISTRACT_END	n/a	n/a	n/a	-999	0	5	[0, 0, 0]	n/a	0	0	0	n/a	n/a	0.0	0	0	0	FR3	0	R1154D
684.699	0.5	697199	RETRIEVAL_ORIENT	n/a	n/a	n/a	-999	0	5	[0, 0, 0]	n/a	0	0	0	n/a	n/a	0.0	0	0	0	FR3	0	R1154D
685.215	1.089	697715	REC_START	n/a	n/a	n/a	-999	0	5	[0, 0, 0]	n/a	0	0	0	n/a	n/a	0.0	0	0	0	FR3	0	R1154D
686.304	2.973	698804	REC_WORD_VV	1.089	n/a	<>	-999	0	5	[0, 0, 0]	n/a	0	0	0	n/a	n/a	0.0	0	0	0	FR3	0	R1154D
689.277	4.033	701777	REC_WORD_VV	4.062	n/a	<>	-999	0	5	[0, 0, 0]	n/a	0	0	0	n/a	n/a	0.0	0	0	0	FR3	0	R1154D
693.31	0.511	705810	REC_WORD_VV	8.095	n/a	<>	-999	0	5	[0, 0, 0]	n/a	0	0	0	n/a	n/a	0.0	0	0	0	FR3	0	R1154D
693.821	1.0	706321	REC_WORD_VV	8.606	n/a	<>	-999	0	5	[0, 0, 0]	n/a	0	0	0	n/a	n/a	0.0	0	0	0	FR3	0	R1154D
694.821	1.0	707320	REC_WORD_VV	9.606	n/a	<>	-999	0	5	[0, 0, 0]	n/a	0	0	0	n/a	n/a	0.0	0	0	0	FR3	0	R1154D
695.821	5.735	708320	REC_WORD_VV	10.606	n/a	<>	-999	0	5	[0, 0, 0]	n/a	0	0	0	n/a	n/a	0.0	0	0	0	FR3	0	R1154D
701.556	1.0	714055	REC_WORD_VV	16.341	n/a	<>	-999	0	5	[0, 0, 0]	n/a	0	0	0	n/a	n/a	0.0	0	0	0	FR3	0	R1154D
702.556	4.225	715055	REC_WORD_VV	17.341	n/a	<>	-999	0	5	[0, 0, 0]	n/a	0	0	0	n/a	n/a	0.0	0	0	0	FR3	0	R1154D
706.781	1.0	719280	REC_WORD_VV	21.566	n/a	<>	-999	0	5	[0, 0, 0]	n/a	0	0	0	n/a	n/a	0.0	0	0	0	FR3	0	R1154D
707.781	7.447	720280	REC_WORD_VV	22.566	n/a	<>	-999	0	5	[0, 0, 0]	n/a	0	0	0	n/a	n/a	0.0	0	0	0	FR3	0	R1154D
715.228	28.165	727726	REC_END	n/a	n/a	n/a	-999	0	5	[0, 0, 0]	n/a	0	0	0	n/a	n/a	0.0	0	0	0	FR3	0	R1154D
743.393	0.5	755890	TRIAL	n/a	n/a	n/a	-999	0	6	[0, 0, 0]	n/a	0	1	0	n/a	n/a	0.0	0	0	0	FR3	0	R1154D
743.893	10.0	756390	COUNTDOWN_START	n/a	n/a	n/a	-999	0	6	[0, 0, 0]	n/a	0	1	0	n/a	n/a	0.0	0	0	0	FR3	0	R1154D
754.321	0.007	766817	COUNTDOWN_END	n/a	n/a	n/a	-999	0	6	[0, 0, 0]	n/a	0	1	0	n/a	n/a	0.0	0	0	0	FR3	0	R1154D
754.328	1.6	766824	ORIENT	n/a	n/a	n/a	-999	0	6	[0, 0, 0]	n/a	0	1	0	n/a	n/a	0.0	0	0	0	FR3	0	R1154D
755.945	2.233	768441	ORIENT_OFF	n/a	n/a	n/a	-999	0	6	[0, 0, 0]	n/a	0	1	0	n/a	n/a	0.0	0	0	0	FR3	0	R1154D
758.178	1.6	770674	WORD	n/a	wordpools/wordpool.txt	BOX	1	0	6	[0, 0, 0]	n/a	0	1	0	n/a	n/a	0.0	0	0	0	FR3	0	R1154D
759.796	0.933	772292	WORD_OFF	n/a	n/a	BOX	1	0	6	[0, 0, 0]	n/a	0	1	0	n/a	n/a	0.0	0	0	0	FR3	0	R1154D
760.729	1.6	773225	WORD	n/a	wordpools/wordpool.txt	CUP	2	0	6	[0, 0, 0]	n/a	0	1	0	n/a	n/a	0.0	0	0	0	FR3	0	R1154D
762.245	0.0	774741	STIM_ON	n/a	n/a	CUP	2	0	6	[0, 0, 0]	n/a	1	1	500	LTCG29	LTCG30	1000.0	200	100	300	FR3	0	R1154D
762.346	0.399	774842	WORD_OFF	n/a	n/a	CUP	2	0	6	[0, 0, 0]	n/a	1	1	500	LTCG29	LTCG30	1000.0	200	100	300	FR3	0	R1154D
762.745	0.417	775241	STIM_OFF	n/a	n/a	n/a	2	0	6	[0, 0, 0]	n/a	0	1	500	LTCG29	LTCG30	1000.0	200	100	300	FR3	0	R1154D
763.162	1.6	775658	WORD	n/a	wordpools/wordpool.txt	ZOO	3	1	6	[0, 0, 0]	n/a	0	1	0	n/a	n/a	0.0	0	0	0	FR3	0	R1154D
764.78	0.784	777276	WORD_OFF	n/a	n/a	ZOO	3	0	6	[0, 0, 0]	n/a	0	1	0	n/a	n/a	0.0	0	0	0	FR3	0	R1154D
765.564	1.6	778060	WORD	n/a	wordpools/wordpool.txt	TREE	4	0	6	[0, 0, 0]	n/a	0	1	0	n/a	n/a	0.0	0	0	0	FR3	0	R1154D
767.075	0.0	779571	STIM_ON	n/a	n/a	TREE	4	0	6	[0, 0, 0]	n/a	1	1	500	LTCG29	LTCG30	1000.0	200	100	300	FR3	0	R1154D
767.18	0.395	779676	WORD_OFF	n/a	n/a	TREE	4	0	6	[0, 0, 0]	n/a	1	1	500	LTCG29	LTCG30	1000.0	200	100	300	FR3	0	R1154D
767.575	0.571	780071	STIM_OFF	n/a	n/a	n/a	4	0	6	[0, 0, 0]	n/a	0	1	500	LTCG29	LTCG30	1000.0	200	100	300	FR3	0	R1154D
768.146	1.6	780642	WORD	n/a	wordpools/wordpool.txt	FOX	5	0	6	[0, 0, 0]	n/a	0	1	0	n/a	n/a	0.0	0	0	0	FR3	0	R1154D
769.747	0.934	782242	WORD_OFF	n/a	n/a	FOX	5	0	6	[0, 0, 0]	n/a	0	1	0	n/a	n/a	0.0	0	0	0	FR3	0	R1154D
770.681	1.6	783176	WORD	n/a	wordpools/wordpool.txt	DEER	6	1	6	[0, 0, 0]	n/a	0	1	0	n/a	n/a	0.0	0	0	0	FR3	0	R1154D
772.297	0.967	784792	WORD_OFF	n/a	n/a	DEER	6	0	6	[0, 0, 0]	n/a	0	1	0	n/a	n/a	0.0	0	0	0	FR3	0	R1154D
773.264	1.6	785759	WORD	n/a	wordpools/wordpool.txt	SPOON	7	0	6	[0, 0, 0]	n/a	0	1	0	n/a	n/a	0.0	0	0	0	FR3	0	R1154D
774.882	0.983	787377	WORD_OFF	n/a	n/a	SPOON	7	0	6	[0, 0, 0]	n/a	0	1	0	n/a	n/a	0.0	0	0	0	FR3	0	R1154D
775.865	1.6	788360	WORD	n/a	wordpools/wordpool.txt	CAGE	8	1	6	[0, 0, 0]	n/a	0	1	0	n/a	n/a	0.0	0	0	0	FR3	0	R1154D
777.482	0.934	789977	WORD_OFF	n/a	n/a	CAGE	8	0	6	[0, 0, 0]	n/a	0	1	0	n/a	n/a	0.0	0	0	0	FR3	0	R1154D
778.416	1.6	790911	WORD	n/a	wordpools/wordpool.txt	HOOF	9	1	6	[0, 0, 0]	n/a	0	1	0	n/a	n/a	0.0	0	0	0	FR3	0	R1154D
780.032	0.851	792527	WORD_OFF	n/a	n/a	HOOF	9	0	6	[0, 0, 0]	n/a	0	1	0	n/a	n/a	0.0	0	0	0	FR3	0	R1154D
780.883	1.6	793378	WORD	n/a	wordpools/wordpool.txt	PEAR	10	1	6	[0, 0, 0]	n/a	0	1	0	n/a	n/a	0.0	0	0	0	FR3	0	R1154D
782.4	0.0	794895	STIM_ON	n/a	n/a	PEAR	10	1	6	[0, 0, 0]	n/a	1	1	500	LTCG29	LTCG30	1000.0	200	100	300	FR3	0	R1154D
782.5	0.4	794995	WORD_OFF	n/a	n/a	PEAR	10	0	6	[0, 0, 0]	n/a	1	1	500	LTCG29	LTCG30	1000.0	200	100	300	FR3	0	R1154D
782.9	0.567	795395	STIM_OFF	n/a	n/a	n/a	10	0	6	[0, 0, 0]	n/a	0	1	500	LTCG29	LTCG30	1000.0	200	100	300	FR3	0	R1154D
783.467	1.6	795962	WORD	n/a	wordpools/wordpool.txt	YARD	11	0	6	[0, 0, 0]	n/a	0	1	0	n/a	n/a	0.0	0	0	0	FR3	0	R1154D
784.991	0.0	797486	STIM_ON	n/a	n/a	YARD	11	0	6	[0, 0, 0]	n/a	1	1	500	LTCG29	LTCG30	1000.0	200	100	300	FR3	0	R1154D
785.083	0.408	797578	WORD_OFF	n/a	n/a	YARD	11	0	6	[0, 0, 0]	n/a	1	1	500	LTCG29	LTCG30	1000.0	200	100	300	FR3	0	R1154D
785.491	0.609	797986	STIM_OFF	n/a	n/a	n/a	11	0	6	[0, 0, 0]	n/a	0	1	500	LTCG29	LTCG30	1000.0	200	100	300	FR3	0	R1154D
786.1	1.6	798595	WORD	n/a	wordpools/wordpool.txt	BROOM	12	0	6	[0, 0, 0]	n/a	0	1	0	n/a	n/a	0.0	0	0	0	FR3	0	R1154D
787.621	0.0	800115	STIM_ON	n/a	n/a	BROOM	12	0	6	[0, 0, 0]	n/a	1	1	500	LTCG29	LTCG30	1000.0	200	100	300	FR3	0	R1154D
787.718	0.0	800212	DISTRACT_START	n/a	n/a	n/a	-999	0	6	[0, 0, 0]	n/a	1	1	500	LTCG29	LTCG30	1000.0	200	100	300	FR3	0	R1154D
787.718	0.0	800212	WORD_OFF	n/a	n/a	BROOM	12	0	6	[0, 0, 0]	n/a	1	1	500	LTCG29	LTCG30	1000.0	200	100	300	FR3	0	R1154D
787.718	0.016	800212	START	n/a	n/a	n/a	-999	0	6	[-999, -999, -999]	n/a	0	1	0	n/a	n/a	0.0	0	0	0	FR3	0	R1154D
787.734	0.387	800228	PROB	2.929	n/a	n/a	-999	0	6	[4, 1, 3]	8	0	1	0	n/a	n/a	0.0	0	0	0	FR3	0	R1154D
788.121	2.58	800615	STIM_OFF	n/a	n/a	n/a	-999	0	6	[0, 0, 0]	n/a	0	1	500	LTCG29	LTCG30	1000.0	200	100	300	FR3	0	R1154D
790.701	2.4	803195	PROB	2.37	n/a	n/a	-999	0	6	[9, 9, 4]	22	0	1	0	n/a	n/a	0.0	0	0	0	FR3	0	R1154D
793.101	3.252	805595	PROB	3.219	n/a	n/a	-999	0	6	[8, 9, 5]	21	0	1	0	n/a	n/a	0.0	0	0	0	FR3	0	R1154D
796.353	2.35	808847	PROB	2.327	n/a	n/a	-999	0	6	[6, 3, 1]	10	0	1	0	n/a	n/a	0.0	0	0	0	FR3	0	R1154D
798.703	2.017	811197	PROB	1.994	n/a	n/a	-999	0	6	[9, 5, 2]	6	0	1	0	n/a	n/a	0.0	0	0	0	FR3	0	R1154D
800.72	3.45	813214	PROB	3.424	n/a	n/a	-999	0	6	[4, 2, 9]	5	0	1	0	n/a	n/a	0.0	0	0	0	FR3	0	R1154D
804.17	2.718	816664	PROB	2.685	n/a	n/a	-999	0	6	[6, 1, 1]	8	0	1	0	n/a	n/a	0.0	0	0	0	FR3	0	R1154D
806.888	2.687	819381	PROB	2.687	n/a	n/a	-999	0	6	[9, 7, 3]	19	0	1	0	n/a	n/a	0.0	0	0	0	FR3	0	R1154D
809.575	0.013	822068	STOP	n/a	n/a	n/a	-999	0	6	[-999, -999, -999]	n/a	0	1	0	n/a	n/a	0.0	0	0	0	FR3	0	R1154D
809.588	0.599	822081	DISTRACT_END	n/a	n/a	n/a	-999	0	6	[0, 0, 0]	n/a	0	1	0	n/a	n/a	0.0	0	0	0	FR3	0	R1154D
810.187	0.5	822680	RETRIEVAL_ORIENT	n/a	n/a	n/a	-999	0	6	[0, 0, 0]	n/a	0	1	0	n/a	n/a	0.0	0	0	0	FR3	0	R1154D
810.689	1.194	823182	REC_START	n/a	n/a	n/a	-999	0	6	[0, 0, 0]	n/a	0	1	0	n/a	n/a	0.0	0	0	0	FR3	0	R1154D
811.883	1.954	824376	REC_WORD	1.194	n/a	DEER	6	1	6	[0, 0, 0]	n/a	0	1	0	n/a	n/a	0.0	0	0	0	FR3	0	R1154D
813.837	1.446	826330	REC_WORD	3.148	n/a	HOOF	9	1	6	[0, 0, 0]	n/a	0	1	0	n/a	n/a	0.0	0	0	0	FR3	0	R1154D
815.283	4.352	827776	REC_WORD	4.594	n/a	PEAR	10	1	6	[0, 0, 0]	n/a	0	1	0	n/a	n/a	0.0	0	0	0	FR3	0	R1154D
819.635	2.479	832128	REC_WORD_VV	8.946	n/a	<>	-999	0	6	[0, 0, 0]	n/a	0	1	0	n/a	n/a	0.0	0	0	0	FR3	0	R1154D
822.114	2.632	834607	REC_WORD	11.425	n/a	ZOO	3	1	6	[0, 0, 0]	n/a	0	1	0	n/a	n/a	0.0	0	0	0	FR3	0	R1154D
824.746	15.953	837238	REC_WORD	14.057	n/a	CAGE	8	1	6	[0, 0, 0]	n/a	0	1	0	n/a	n/a	0.0	0	0	0	FR3	0	R1154D
840.699	5.462	853191	REC_END	n/a	n/a	n/a	-999	0	6	[0, 0, 0]	n/a	0	1	0	n/a	n/a	0.0	0	0	0	FR3	0	R1154D
846.161	0.5	858652	TRIAL	n/a	n/a	n/a	-999	0	7	[0, 0, 0]	n/a	0	1	0	n/a	n/a	0.0	0	0	0	FR3	0	R1154D
846.661	10.0	859152	COUNTDOWN_START	n/a	n/a	n/a	-999	0	7	[0, 0, 0]	n/a	0	1	0	n/a	n/a	0.0	0	0	0	FR3	0	R1154D
857.089	0.007	869580	COUNTDOWN_END	n/a	n/a	n/a	-999	0	7	[0, 0, 0]	n/a	0	1	0	n/a	n/a	0.0	0	0	0	FR3	0	R1154D
857.096	1.6	869587	ORIENT	n/a	n/a	n/a	-999	0	7	[0, 0, 0]	n/a	0	1	0	n/a	n/a	0.0	0	0	0	FR3	0	R1154D
858.714	2.017	871205	ORIENT_OFF	n/a	n/a	n/a	-999	0	7	[0, 0, 0]	n/a	0	1	0	n/a	n/a	0.0	0	0	0	FR3	0	R1154D
860.731	1.6	873222	WORD	n/a	wordpools/wordpool.txt	HAT	1	0	7	[0, 0, 0]	n/a	0	1	0	n/a	n/a	0.0	0	0	0	FR3	0	R1154D
862.254	0.0	874744	STIM_ON	n/a	n/a	HAT	1	0	7	[0, 0, 0]	n/a	1	1	500	LTCG29	LTCG30	1000.0	200	100	300	FR3	0	R1154D
862.348	0.406	874838	WORD_OFF	n/a	n/a	HAT	1	0	7	[0, 0, 0]	n/a	1	1	500	LTCG29	LTCG30	1000.0	200	100	300	FR3	0	R1154D
862.754	0.493	875244	STIM_OFF	n/a	n/a	n/a	1	0	7	[0, 0, 0]	n/a	0	1	500	LTCG29	LTCG30	1000.0	200	100	300	FR3	0	R1154D
863.247	1.6	875737	WORD	n/a	wordpools/wordpool.txt	SUIT	2	0	7	[0, 0, 0]	n/a	0	1	0	n/a	n/a	0.0	0	0	0	FR3	0	R1154D
864.865	0.9	877355	WORD_OFF	n/a	n/a	SUIT	2	0	7	[0, 0, 0]	n/a	0	1	0	n/a	n/a	0.0	0	0	0	FR3	0	R1154D
865.765	1.6	878255	WORD	n/a	wordpools/wordpool.txt	STRAW	3	0	7	[0, 0, 0]	n/a	0	1	0	n/a	n/a	0.0	0	0	0	FR3	0	R1154D
867.283	0.0	879773	STIM_ON	n/a	n/a	STRAW	3	0	7	[0, 0, 0]	n/a	1	1	500	LTCG29	LTCG30	1000.0	200	100	300	FR3	0	R1154D
867.382	0.401	879872	WORD_OFF	n/a	n/a	STRAW	3	0	7	[0, 0, 0]	n/a	1	1	500	LTCG29	LTCG30	1000.0	200	100	300	FR3	0	R1154D
867.783	0.599	880273	STIM_OFF	n/a	n/a	n/a	3	0	7	[0, 0, 0]	n/a	0	1	500	LTCG29	LTCG30	1000.0	200	100	300	FR3	0	R1154D
868.382	1.6	880872	WORD	n/a	wordpools/wordpool.txt	SWORD	4	0	7	[0, 0, 0]	n/a	0	1	0	n/a	n/a	0.0	0	0	0	FR3	0	R1154D
869.999	0.867	882489	WORD_OFF	n/a	n/a	SWORD	4	0	7	[0, 0, 0]	n/a	0	1	0	n/a	n/a	0.0	0	0	0	FR3	0	R1154D
870.866	1.6	883356	WORD	n/a	wordpools/wordpool.txt	PEN	5	0	7	[0, 0, 0]	n/a	0	1	0	n/a	n/a	0.0	0	0	0	FR3	0	R1154D
872.384	0.0	884874	STIM_ON	n/a	n/a	PEN	5	0	7	[0, 0, 0]	n/a	1	1	500	LTCG29	LTCG30	1000.0	200	100	300	FR3	0	R1154D
872.483	0.401	884973	WORD_OFF	n/a	n/a	PEN	5	0	7	[0, 0, 0]	n/a	1	1	500	LTCG29	LTCG30	1000.0	200	100	300	FR3	0	R1154D
872.884	0.533	885374	STIM_OFF	n/a	n/a	n/a	5	0	7	[0, 0, 0]	n/a	0	1	500	LTCG29	LTCG30	1000.0	200	100	300	FR3	0	R1154D
873.417	1.6	885907	WORD	n/a	wordpools/wordpool.txt	BADGE	6	1	7	[0, 0, 0]	n/a	0	1	0	n/a	n/a	0.0	0	0	0	FR3	0	R1154D
875.033	0.784	887523	WORD_OFF	n/a	n/a	BADGE	6	0	7	[0, 0, 0]	n/a	0	1	0	n/a	n/a	0.0	0	0	0	FR3	0	R1154D
875.817	1.6	888307	WORD	n/a	wordpools/wordpool.txt	LIP	7	1	7	[0, 0, 0]	n/a	0	1	0	n/a	n/a	0.0	0	0	0	FR3	0	R1154D
877.341	0.0	889831	STIM_ON	n/a	n/a	LIP	7	1	7	[0, 0, 0]	n/a	1	1	500	LTCG29	LTCG30	1000.0	200	100	300	FR3	0	R1154D
877.434	0.408	889924	WORD_OFF	n/a	n/a	LIP	7	0	7	[0, 0, 0]	n/a	1	1	500	LTCG29	LTCG30	1000.0	200	100	300	FR3	0	R1154D
877.842	0.492	890332	STIM_OFF	n/a	n/a	n/a	7	0	7	[0, 0, 0]	n/a	0	1	500	LTCG29	LTCG30	1000.0	200	100	300	FR3	0	R1154D
878.334	1.6	890824	WORD	n/a	wordpools/wordpool.txt	PARK	8	0	7	[0, 0, 0]	n/a	0	1	0	n/a	n/a	0.0	0	0	0	FR3	0	R1154D
879.951	0.95	892441	WORD_OFF	n/a	n/a	PARK	8	0	7	[0, 0, 0]	n/a	0	1	0	n/a	n/a	0.0	0	0	0	FR3	0	R1154D
880.901	1.6	893390	WORD	n/a	wordpools/wordpool.txt	VAN	9	1	7	[0, 0, 0]	n/a	0	1	0	n/a	n/a	0.0	0	0	0	FR3	0	R1154D
882.427	0.0	894916	STIM_ON	n/a	n/a	VAN	9	1	7	[0, 0, 0]	n/a	1	1	500	LTCG29	LTCG30	1000.0	200	100	300	FR3	0	R1154D
882.518	0.409	895007	WORD_OFF	n/a	n/a	VAN	9	0	7	[0, 0, 0]	n/a	1	1	500	LTCG29	LTCG30	1000.0	200	100	300	FR3	0	R1154D
882.927	0.374	895416	STIM_OFF	n/a	n/a	n/a	9	0	7	[0, 0, 0]	n/a	0	1	500	LTCG29	LTCG30	1000.0	200	100	300	FR3	0	R1154D
883.301	1.6	895790	WORD	n/a	wordpools/wordpool.txt	GUARD	10	0	7	[0, 0, 0]	n/a	0	1	0	n/a	n/a	0.0	0	0	0	FR3	0	R1154D
884.919	0.767	897408	WORD_OFF	n/a	n/a	GUARD	10	0	7	[0, 0, 0]	n/a	0	1	0	n/a	n/a	0.0	0	0	0	FR3	0	R1154D
885.686	1.6	898175	WORD	n/a	wordpools/wordpool.txt	EEL	11	0	7	[0, 0, 0]	n/a	0	1	0	n/a	n/a	0.0	0	0	0	FR3	0	R1154D
887.209	0.0	899698	STIM_ON	n/a	n/a	EEL	11	0	7	[0, 0, 0]	n/a	1	1	500	LTCG29	LTCG30	1000.0	200	100	300	FR3	0	R1154D
887.301	0.408	899790	WORD_OFF	n/a	n/a	EEL	11	0	7	[0, 0, 0]	n/a	1	1	500	LTCG29	LTCG30	1000.0	200	100	300	FR3	0	R1154D
887.709	0.576	900198	STIM_OFF	n/a	n/a	n/a	11	0	7	[0, 0, 0]	n/a	0	1	500	LTCG29	LTCG30	1000.0	200	100	300	FR3	0	R1154D
888.285	1.6	900774	WORD	n/a	wordpools/wordpool.txt	SIGN	12	0	7	[0, 0, 0]	n/a	0	1	0	n/a	n/a	0.0	0	0	0	FR3	0	R1154D
889.886	0.0	902375	WORD_OFF	n/a	n/a	SIGN	12	0	7	[0, 0, 0]	n/a	0	1	0	n/a	n/a	0.0	0	0	0	FR3	0	R1154D
889.886	0.001	902375	DISTRACT_START	n/a	n/a	n/a	-999	0	7	[0, 0, 0]	n/a	0	1	0	n/a	n/a	0.0	0	0	0	FR3	0	R1154D
889.887	0.016	902376	START	n/a	n/a	n/a	-999	0	7	[-999, -999, -999]	n/a	0	1	0	n/a	n/a	0.0	0	0	0	FR3	0	R1154D
889.903	2.551	902392	PROB	2.514	n/a	n/a	-999	0	7	[7, 1, 1]	9	0	1	0	n/a	n/a	0.0	0	0	0	FR3	0	R1154D
892.454	3.25	904943	PROB	3.226	n/a	n/a	-999	0	7	[2, 8, 9]	19	0	1	0	n/a	n/a	0.0	0	0	0	FR3	0	R1154D
895.704	2.45	908193	PROB	2.423	n/a	n/a	-999	0	7	[6, 6, 5]	17	0	1	0	n/a	n/a	0.0	0	0	0	FR3	0	R1154D
898.154	1.434	910643	PROB	1.398	n/a	n/a	-999	0	7	[9, 1, 7]	1	0	1	0	n/a	n/a	0.0	0	0	0	FR3	0	R1154D
899.588	4.533	912076	PROB	4.507	n/a	n/a	-999	0	7	[8, 3, 9]	20	0	1	0	n/a	n/a	0.0	0	0	0	FR3	0	R1154D
904.121	2.552	916609	PROB	2.528	n/a	n/a	-999	0	7	[5, 6, 8]	1	0	1	0	n/a	n/a	0.0	0	0	0	FR3	0	R1154D
906.673	6.199	919161	PROB	6.199	n/a	n/a	-999	0	7	[5, 9, 4]	18	0	1	0	n/a	n/a	0.0	0	0	0	FR3	0	R1154D
912.872	0.018	925360	STOP	n/a	n/a	n/a	-999	0	7	[-999, -999, -999]	n/a	0	1	0	n/a	n/a	0.0	0	0	0	FR3	0	R1154D
912.89	0.617	925378	DISTRACT_END	n/a	n/a	n/a	-999	0	7	[0, 0, 0]	n/a	0	1	0	n/a	n/a	0.0	0	0	0	FR3	0	R1154D
913.507	0.5	925995	RETRIEVAL_ORIENT	n/a	n/a	n/a	-999	0	7	[0, 0, 0]	n/a	0	1	0	n/a	n/a	0.0	0	0	0	FR3	0	R1154D
914.024	0.873	926512	REC_START	n/a	n/a	n/a	-999	0	7	[0, 0, 0]	n/a	0	1	0	n/a	n/a	0.0	0	0	0	FR3	0	R1154D
914.897	0.411	927385	REC_WORD_VV	0.873	n/a	<>	-999	0	7	[0, 0, 0]	n/a	0	1	0	n/a	n/a	0.0	0	0	0	FR3	0	R1154D
915.308	0.703	927796	REC_WORD	1.284	n/a	VAN	9	1	7	[0, 0, 0]	n/a	0	1	0	n/a	n/a	0.0	0	0	0	FR3	0	R1154D
916.011	22.913	928499	REC_WORD	1.987	n/a	LIP	7	1	7	[0, 0, 0]	n/a	0	1	0	n/a	n/a	0.0	0	0	0	FR3	0	R1154D
938.924	5.112	951410	REC_WORD	24.9	n/a	BADGE	6	1	7	[0, 0, 0]	n/a	0	1	0	n/a	n/a	0.0	0	0	0	FR3	0	R1154D
944.036	5.845	956522	REC_END	n/a	n/a	n/a	-999	0	7	[0, 0, 0]	n/a	0	1	0	n/a	n/a	0.0	0	0	0	FR3	0	R1154D
949.881	0.5	962367	TRIAL	n/a	n/a	n/a	-999	0	8	[0, 0, 0]	n/a	0	0	0	n/a	n/a	0.0	0	0	0	FR3	0	R1154D
950.381	10.0	962867	COUNTDOWN_START	n/a	n/a	n/a	-999	0	8	[0, 0, 0]	n/a	0	0	0	n/a	n/a	0.0	0	0	0	FR3	0	R1154D
960.809	0.007	973294	COUNTDOWN_END	n/a	n/a	n/a	-999	0	8	[0, 0, 0]	n/a	0	0	0	n/a	n/a	0.0	0	0	0	FR3	0	R1154D
960.816	1.6	973301	ORIENT	n/a	n/a	n/a	-999	0	8	[0, 0, 0]	n/a	0	0	0	n/a	n/a	0.0	0	0	0	FR3	0	R1154D
962.433	2.134	974918	ORIENT_OFF	n/a	n/a	n/a	-999	0	8	[0, 0, 0]	n/a	0	0	0	n/a	n/a	0.0	0	0	0	FR3	0	R1154D
964.567	1.6	977052	WORD	n/a	wordpools/wordpool.txt	FLAG	1	1	8	[0, 0, 0]	n/a	0	0	0	n/a	n/a	0.0	0	0	0	FR3	0	R1154D
966.183	0.983	978668	WORD_OFF	n/a	n/a	FLAG	1	0	8	[0, 0, 0]	n/a	0	0	0	n/a	n/a	0.0	0	0	0	FR3	0	R1154D
967.166	1.6	979651	WORD	n/a	wordpools/wordpool.txt	RICE	2	1	8	[0, 0, 0]	n/a	0	0	0	n/a	n/a	0.0	0	0	0	FR3	0	R1154D
968.767	0.784	981252	WORD_OFF	n/a	n/a	RICE	2	0	8	[0, 0, 0]	n/a	0	0	0	n/a	n/a	0.0	0	0	0	FR3	0	R1154D
969.551	1.6	982036	WORD	n/a	wordpools/wordpool.txt	STOVE	3	0	8	[0, 0, 0]	n/a	0	0	0	n/a	n/a	0.0	0	0	0	FR3	0	R1154D
971.167	0.883	983652	WORD_OFF	n/a	n/a	STOVE	3	0	8	[0, 0, 0]	n/a	0	0	0	n/a	n/a	0.0	0	0	0	FR3	0	R1154D
972.05	1.6	984535	WORD	n/a	wordpools/wordpool.txt	SPONGE	4	0	8	[0, 0, 0]	n/a	0	0	0	n/a	n/a	0.0	0	0	0	FR3	0	R1154D
973.668	0.917	986152	WORD_OFF	n/a	n/a	SPONGE	4	0	8	[0, 0, 0]	n/a	0	0	0	n/a	n/a	0.0	0	0	0	FR3	0	R1154D
974.585	1.6	987069	WORD	n/a	wordpools/wordpool.txt	SHELL	5	0	8	[0, 0, 0]	n/a	0	0	0	n/a	n/a	0.0	0	0	0	FR3	0	R1154D
976.201	0.917	988685	WORD_OFF	n/a	n/a	SHELL	5	0	8	[0, 0, 0]	n/a	0	0	0	n/a	n/a	0.0	0	0	0	FR3	0	R1154D
977.118	1.6	989602	WORD	n/a	wordpools/wordpool.txt	DOCK	6	0	8	[0, 0, 0]	n/a	0	0	0	n/a	n/a	0.0	0	0	0	FR3	0	R1154D
978.736	0.983	991220	WORD_OFF	n/a	n/a	DOCK	6	0	8	[0, 0, 0]	n/a	0	0	0	n/a	n/a	0.0	0	0	0	FR3	0	R1154D
979.719	1.6	992203	WORD	n/a	wordpools/wordpool.txt	FORT	7	0	8	[0, 0, 0]	n/a	0	0	0	n/a	n/a	0.0	0	0	0	FR3	0	R1154D
981.336	0.8	993820	WORD_OFF	n/a	n/a	FORT	7	0	8	[0, 0, 0]	n/a	0	0	0	n/a	n/a	0.0	0	0	0	FR3	0	R1154D
982.136	1.6	994620	WORD	n/a	wordpools/wordpool.txt	PEA	8	1	8	[0, 0, 0]	n/a	0	0	0	n/a	n/a	0.0	0	0	0	FR3	0	R1154D
983.737	0.917	996221	WORD_OFF	n/a	n/a	PEA	8	0	8	[0, 0, 0]	n/a	0	0	0	n/a	n/a	0.0	0	0	0	FR3	0	R1154D
984.654	1.6	997138	WORD	n/a	wordpools/wordpool.txt	EAR	9	0	8	[0, 0, 0]	n/a	0	0	0	n/a	n/a	0.0	0	0	0	FR3	0	R1154D
986.27	0.816	998754	WORD_OFF	n/a	n/a	EAR	9	0	8	[0, 0, 0]	n/a	0	0	0	n/a	n/a	0.0	0	0	0	FR3	0	R1154D
987.086	1.6	999570	WORD	n/a	wordpools/wordpool.txt	FILM	10	0	8	[0, 0, 0]	n/a	0	0	0	n/a	n/a	0.0	0	0	0	FR3	0	R1154D
988.687	1.001	1001171	WORD_OFF	n/a	n/a	FILM	10	0	8	[0, 0, 0]	n/a	0	0	0	n/a	n/a	0.0	0	0	0	FR3	0	R1154D
989.688	1.6	1002172	WORD	n/a	wordpools/wordpool.txt	TANK	11	0	8	[0, 0, 0]	n/a	0	0	0	n/a	n/a	0.0	0	0	0	FR3	0	R1154D
991.304	0.967	1003788	WORD_OFF	n/a	n/a	TANK	11	0	8	[0, 0, 0]	n/a	0	0	0	n/a	n/a	0.0	0	0	0	FR3	0	R1154D
992.271	1.6	1004754	WORD	n/a	wordpools/wordpool.txt	SALT	12	0	8	[0, 0, 0]	n/a	0	0	0	n/a	n/a	0.0	0	0	0	FR3	0	R1154D
993.889	0.0	1006372	WORD_OFF	n/a	n/a	SALT	12	0	8	[0, 0, 0]	n/a	0	0	0	n/a	n/a	0.0	0	0	0	FR3	0	R1154D
993.889	0.0	1006372	DISTRACT_START	n/a	n/a	n/a	-999	0	8	[0, 0, 0]	n/a	0	0	0	n/a	n/a	0.0	0	0	0	FR3	0	R1154D
993.889	0.016	1006372	START	n/a	n/a	n/a	-999	0	8	[-999, -999, -999]	n/a	0	0	0	n/a	n/a	0.0	0	0	0	FR3	0	R1154D
993.905	5.367	1006388	PROB	5.333	n/a	n/a	-999	0	8	[8, 1, 5]	14	0	0	0	n/a	n/a	0.0	0	0	0	FR3	0	R1154D
999.272	1.984	1011755	PROB	1.959	n/a	n/a	-999	0	8	[1, 9, 4]	14	0	0	0	n/a	n/a	0.0	0	0	0	FR3	0	R1154D
1001.256	1.734	1013739	PROB	1.697	n/a	n/a	-999	0	8	[4, 5, 5]	14	0	0	0	n/a	n/a	0.0	0	0	0	FR3	0	R1154D
1002.99	2.033	1015473	PROB	2.003	n/a	n/a	-999	0	8	[6, 1, 2]	9	0	0	0	n/a	n/a	0.0	0	0	0	FR3	0	R1154D
1005.023	1.685	1017506	PROB	1.657	n/a	n/a	-999	0	8	[7, 3, 1]	11	0	0	0	n/a	n/a	0.0	0	0	0	FR3	0	R1154D
1006.708	2.017	1019191	PROB	1.98	n/a	n/a	-999	0	8	[9, 9, 3]	21	0	0	0	n/a	n/a	0.0	0	0	0	FR3	0	R1154D
1008.725	2.299	1021208	PROB	2.266	n/a	n/a	-999	0	8	[8, 8, 1]	17	0	0	0	n/a	n/a	0.0	0	0	0	FR3	0	R1154D
1011.024	2.034	1023506	PROB	2.006	n/a	n/a	-999	0	8	[6, 3, 7]	16	0	0	0	n/a	n/a	0.0	0	0	0	FR3	0	R1154D
1013.058	3.157	1025540	PROB	3.157	n/a	n/a	-999	0	8	[8, 7, 5]	20	0	0	0	n/a	n/a	0.0	0	0	0	FR3	0	R1154D
1016.215	0.01	1028697	STOP	n/a	n/a	n/a	-999	0	8	[-999, -999, -999]	n/a	0	0	0	n/a	n/a	0.0	0	0	0	FR3	0	R1154D
1016.225	0.701	1028707	DISTRACT_END	n/a	n/a	n/a	-999	0	8	[0, 0, 0]	n/a	0	0	0	n/a	n/a	0.0	0	0	0	FR3	0	R1154D
1016.926	0.5	1029408	RETRIEVAL_ORIENT	n/a	n/a	n/a	-999	0	8	[0, 0, 0]	n/a	0	0	0	n/a	n/a	0.0	0	0	0	FR3	0	R1154D
1017.444	0.269	1029926	REC_START	n/a	n/a	n/a	-999	0	8	[0, 0, 0]	n/a	0	0	0	n/a	n/a	0.0	0	0	0	FR3	0	R1154D
1017.713	1.196	1030195	REC_WORD_VV	0.269	n/a	<>	-999	0	8	[0, 0, 0]	n/a	0	0	0	n/a	n/a	0.0	0	0	0	FR3	0	R1154D
1018.909	4.869	1031391	REC_WORD_VV	1.465	n/a	<>	-999	0	8	[0, 0, 0]	n/a	0	0	0	n/a	n/a	0.0	0	0	0	FR3	0	R1154D
1023.778	0.199	1036260	REC_WORD_VV	6.334	n/a	<>	-999	0	8	[0, 0, 0]	n/a	0	0	0	n/a	n/a	0.0	0	0	0	FR3	0	R1154D
1023.977	0.945	1036459	REC_WORD	6.533	n/a	RICE	2	1	8	[0, 0, 0]	n/a	0	0	0	n/a	n/a	0.0	0	0	0	FR3	0	R1154D
1024.922	1.867	1037404	REC_WORD_VV	7.478	n/a	<>	-999	0	8	[0, 0, 0]	n/a	0	0	0	n/a	n/a	0.0	0	0	0	FR3	0	R1154D
1026.789	3.287	1039271	REC_WORD_VV	9.345	n/a	<>	-999	0	8	[0, 0, 0]	n/a	0	0	0	n/a	n/a	0.0	0	0	0	FR3	0	R1154D
1030.076	4.362	1042557	REC_WORD	12.632	n/a	PEA	8	1	8	[0, 0, 0]	n/a	0	0	0	n/a	n/a	0.0	0	0	0	FR3	0	R1154D
1034.438	1.915	1046919	REC_WORD_VV	16.994	n/a	<>	-999	0	8	[0, 0, 0]	n/a	0	0	0	n/a	n/a	0.0	0	0	0	FR3	0	R1154D
1036.353	11.1	1048834	REC_WORD	18.909	n/a	FLAG	1	1	8	[0, 0, 0]	n/a	0	0	0	n/a	n/a	0.0	0	0	0	FR3	0	R1154D
1047.453	5.03	1059934	REC_END	n/a	n/a	n/a	-999	0	8	[0, 0, 0]	n/a	0	0	0	n/a	n/a	0.0	0	0	0	FR3	0	R1154D
1052.483	0.5	1064963	TRIAL	n/a	n/a	n/a	-999	0	9	[0, 0, 0]	n/a	0	0	0	n/a	n/a	0.0	0	0	0	FR3	0	R1154D
1052.983	10.0	1065463	COUNTDOWN_START	n/a	n/a	n/a	-999	0	9	[0, 0, 0]	n/a	0	0	0	n/a	n/a	0.0	0	0	0	FR3	0	R1154D
1063.411	0.007	1075891	COUNTDOWN_END	n/a	n/a	n/a	-999	0	9	[0, 0, 0]	n/a	0	0	0	n/a	n/a	0.0	0	0	0	FR3	0	R1154D
1063.418	1.6	1075898	ORIENT	n/a	n/a	n/a	-999	0	9	[0, 0, 0]	n/a	0	0	0	n/a	n/a	0.0	0	0	0	FR3	0	R1154D
1065.034	2.301	1077514	ORIENT_OFF	n/a	n/a	n/a	-999	0	9	[0, 0, 0]	n/a	0	0	0	n/a	n/a	0.0	0	0	0	FR3	0	R1154D
1067.335	1.6	1079814	WORD	n/a	wordpools/wordpool.txt	LEAF	1	0	9	[0, 0, 0]	n/a	0	0	0	n/a	n/a	0.0	0	0	0	FR3	0	R1154D
1068.952	0.851	1081431	WORD_OFF	n/a	n/a	LEAF	1	0	9	[0, 0, 0]	n/a	0	0	0	n/a	n/a	0.0	0	0	0	FR3	0	R1154D
1069.803	1.6	1082282	WORD	n/a	wordpools/wordpool.txt	CAT	2	1	9	[0, 0, 0]	n/a	0	0	0	n/a	n/a	0.0	0	0	0	FR3	0	R1154D
1071.419	0.816	1083898	WORD_OFF	n/a	n/a	CAT	2	0	9	[0, 0, 0]	n/a	0	0	0	n/a	n/a	0.0	0	0	0	FR3	0	R1154D
1072.235	1.6	1084714	WORD	n/a	wordpools/wordpool.txt	MOTH	3	1	9	[0, 0, 0]	n/a	0	0	0	n/a	n/a	0.0	0	0	0	FR3	0	R1154D
1073.853	0.901	1086332	WORD_OFF	n/a	n/a	MOTH	3	0	9	[0, 0, 0]	n/a	0	0	0	n/a	n/a	0.0	0	0	0	FR3	0	R1154D
1074.754	1.6	1087233	WORD	n/a	wordpools/wordpool.txt	SKUNK	4	0	9	[0, 0, 0]	n/a	0	0	0	n/a	n/a	0.0	0	0	0	FR3	0	R1154D
1076.37	0.984	1088849	WORD_OFF	n/a	n/a	SKUNK	4	0	9	[0, 0, 0]	n/a	0	0	0	n/a	n/a	0.0	0	0	0	FR3	0	R1154D
1077.354	1.6	1089833	WORD	n/a	wordpools/wordpool.txt	SNAIL	5	0	9	[0, 0, 0]	n/a	0	0	0	n/a	n/a	0.0	0	0	0	FR3	0	R1154D
1078.971	0.9	1091450	WORD_OFF	n/a	n/a	SNAIL	5	0	9	[0, 0, 0]	n/a	0	0	0	n/a	n/a	0.0	0	0	0	FR3	0	R1154D
1079.871	1.6	1092350	WORD	n/a	wordpools/wordpool.txt	TOY	6	0	9	[0, 0, 0]	n/a	0	0	0	n/a	n/a	0.0	0	0	0	FR3	0	R1154D
1081.488	0.766	1093967	WORD_OFF	n/a	n/a	TOY	6	0	9	[0, 0, 0]	n/a	0	0	0	n/a	n/a	0.0	0	0	0	FR3	0	R1154D
1082.254	1.6	1094733	WORD	n/a	wordpools/wordpool.txt	OWL	7	0	9	[0, 0, 0]	n/a	0	0	0	n/a	n/a	0.0	0	0	0	FR3	0	R1154D
1083.872	0.817	1096351	WORD_OFF	n/a	n/a	OWL	7	0	9	[0, 0, 0]	n/a	0	0	0	n/a	n/a	0.0	0	0	0	FR3	0	R1154D
1084.689	1.6	1097168	WORD	n/a	wordpools/wordpool.txt	GRASS	8	0	9	[0, 0, 0]	n/a	0	0	0	n/a	n/a	0.0	0	0	0	FR3	0	R1154D
1086.305	0.833	1098783	WORD_OFF	n/a	n/a	GRASS	8	0	9	[0, 0, 0]	n/a	0	0	0	n/a	n/a	0.0	0	0	0	FR3	0	R1154D
1087.138	1.6	1099616	WORD	n/a	wordpools/wordpool.txt	SEA	9	1	9	[0, 0, 0]	n/a	0	0	0	n/a	n/a	0.0	0	0	0	FR3	0	R1154D
1088.756	0.9	1101234	WORD_OFF	n/a	n/a	SEA	9	0	9	[0, 0, 0]	n/a	0	0	0	n/a	n/a	0.0	0	0	0	FR3	0	R1154D
1089.656	1.6	1102134	WORD	n/a	wordpools/wordpool.txt	BLOOM	10	0	9	[0, 0, 0]	n/a	0	0	0	n/a	n/a	0.0	0	0	0	FR3	0	R1154D
1091.272	0.834	1103750	WORD_OFF	n/a	n/a	BLOOM	10	0	9	[0, 0, 0]	n/a	0	0	0	n/a	n/a	0.0	0	0	0	FR3	0	R1154D
1092.106	1.6	1104584	WORD	n/a	wordpools/wordpool.txt	LAND	11	0	9	[0, 0, 0]	n/a	0	0	0	n/a	n/a	0.0	0	0	0	FR3	0	R1154D
1093.724	0.916	1106202	WORD_OFF	n/a	n/a	LAND	11	0	9	[0, 0, 0]	n/a	0	0	0	n/a	n/a	0.0	0	0	0	FR3	0	R1154D
1094.64	1.6	1107118	WORD	n/a	wordpools/wordpool.txt	SEAL	12	0	9	[0, 0, 0]	n/a	0	0	0	n/a	n/a	0.0	0	0	0	FR3	0	R1154D
1096.256	0.0	1108734	WORD_OFF	n/a	n/a	SEAL	12	0	9	[0, 0, 0]	n/a	0	0	0	n/a	n/a	0.0	0	0	0	FR3	0	R1154D
1096.256	0.001	1108734	DISTRACT_START	n/a	n/a	n/a	-999	0	9	[0, 0, 0]	n/a	0	0	0	n/a	n/a	0.0	0	0	0	FR3	0	R1154D
1096.257	0.016	1108735	START	n/a	n/a	n/a	-999	0	9	[-999, -999, -999]	n/a	0	0	0	n/a	n/a	0.0	0	0	0	FR3	0	R1154D
1096.273	2.635	1108751	PROB	2.608	n/a	n/a	-999	0	9	[9, 6, 2]	17	0	0	0	n/a	n/a	0.0	0	0	0	FR3	0	R1154D
1098.908	2.233	1111386	PROB	2.203	n/a	n/a	-999	0	9	[9, 3, 4]	16	0	0	0	n/a	n/a	0.0	0	0	0	FR3	0	R1154D
1101.141	1.933	1113619	PROB	1.898	n/a	n/a	-999	0	9	[4, 7, 3]	14	0	0	0	n/a	n/a	0.0	0	0	0	FR3	0	R1154D
1103.074	2.117	1115552	PROB	2.093	n/a	n/a	-999	0	9	[1, 9, 5]	15	0	0	0	n/a	n/a	0.0	0	0	0	FR3	0	R1154D
1105.191	2.017	1117668	PROB	1.983	n/a	n/a	-999	0	9	[5, 5, 8]	18	0	0	0	n/a	n/a	0.0	0	0	0	FR3	0	R1154D
1107.208	2.785	1119685	PROB	2.752	n/a	n/a	-999	0	9	[2, 7, 1]	10	0	0	0	n/a	n/a	0.0	0	0	0	FR3	0	R1154D
1109.993	5.835	1122470	PROB	5.807	n/a	n/a	-999	0	9	[8, 5, 7]	20	0	0	0	n/a	n/a	0.0	0	0	0	FR3	0	R1154D
1115.828	1.644	1128305	PROB	1.644	n/a	n/a	-999	0	9	[1, 2, 8]	11	0	0	0	n/a	n/a	0.0	0	0	0	FR3	0	R1154D
1117.472	0.006	1129949	STOP	n/a	n/a	n/a	-999	0	9	[-999, -999, -999]	n/a	0	0	0	n/a	n/a	0.0	0	0	0	FR3	0	R1154D
1117.478	0.533	1129955	DISTRACT_END	n/a	n/a	n/a	-999	0	9	[0, 0, 0]	n/a	0	0	0	n/a	n/a	0.0	0	0	0	FR3	0	R1154D
1118.011	0.5	1130488	RETRIEVAL_ORIENT	n/a	n/a	n/a	-999	0	9	[0, 0, 0]	n/a	0	0	0	n/a	n/a	0.0	0	0	0	FR3	0	R1154D
1118.529	0.762	1131006	REC_START	n/a	n/a	n/a	-999	0	9	[0, 0, 0]	n/a	0	0	0	n/a	n/a	0.0	0	0	0	FR3	0	R1154D
1119.291	0.764	1131768	REC_WORD	0.762	n/a	SEA	9	1	9	[0, 0, 0]	n/a	0	0	0	n/a	n/a	0.0	0	0	0	FR3	0	R1154D
1120.055	3.272	1132532	REC_WORD	1.526	n/a	MOTH	3	1	9	[0, 0, 0]	n/a	0	0	0	n/a	n/a	0.0	0	0	0	FR3	0	R1154D
1123.327	4.993	1135803	REC_WORD	4.798	n/a	CAT	2	1	9	[0, 0, 0]	n/a	0	0	0	n/a	n/a	0.0	0	0	0	FR3	0	R1154D
1128.32	0.736	1140796	REC_WORD_VV	9.791	n/a	<>	-999	0	9	[0, 0, 0]	n/a	0	0	0	n/a	n/a	0.0	0	0	0	FR3	0	R1154D
1129.056	18.645	1141532	REC_WORD	10.527	n/a	CAT	2	1	9	[0, 0, 0]	n/a	0	0	0	n/a	n/a	0.0	0	0	0	FR3	0	R1154D
1147.701	0.839	1160176	REC_WORD	29.172	n/a	CLOTH	-999	0	9	[0, 0, 0]	n/a	0	0	0	n/a	n/a	0.0	0	0	0	FR3	0	R1154D
1148.54	5.211	1161015	REC_END	n/a	n/a	n/a	-999	0	9	[0, 0, 0]	n/a	0	0	0	n/a	n/a	0.0	0	0	0	FR3	0	R1154D
1153.751	0.5	1166226	TRIAL	n/a	n/a	n/a	-999	0	10	[0, 0, 0]	n/a	0	1	0	n/a	n/a	0.0	0	0	0	FR3	0	R1154D
1154.251	10.0	1166726	COUNTDOWN_START	n/a	n/a	n/a	-999	0	10	[0, 0, 0]	n/a	0	1	0	n/a	n/a	0.0	0	0	0	FR3	0	R1154D
1164.679	0.008	1177153	COUNTDOWN_END	n/a	n/a	n/a	-999	0	10	[0, 0, 0]	n/a	0	1	0	n/a	n/a	0.0	0	0	0	FR3	0	R1154D
1164.687	1.6	1177161	ORIENT	n/a	n/a	n/a	-999	0	10	[0, 0, 0]	n/a	0	1	0	n/a	n/a	0.0	0	0	0	FR3	0	R1154D
1166.303	2.134	1178777	ORIENT_OFF	n/a	n/a	n/a	-999	0	10	[0, 0, 0]	n/a	0	1	0	n/a	n/a	0.0	0	0	0	FR3	0	R1154D
1168.437	1.6	1180911	WORD	n/a	wordpools/wordpool.txt	SHIRT	1	1	10	[0, 0, 0]	n/a	0	1	0	n/a	n/a	0.0	0	0	0	FR3	0	R1154D
1169.979	0.0	1182453	STIM_ON	n/a	n/a	SHIRT	1	1	10	[0, 0, 0]	n/a	1	1	500	LTCG29	LTCG30	1000.0	200	100	300	FR3	0	R1154D
1170.053	0.426	1182527	WORD_OFF	n/a	n/a	SHIRT	1	0	10	[0, 0, 0]	n/a	1	1	500	LTCG29	LTCG30	1000.0	200	100	300	FR3	0	R1154D
1170.479	0.375	1182953	STIM_OFF	n/a	n/a	n/a	1	0	10	[0, 0, 0]	n/a	0	1	500	LTCG29	LTCG30	1000.0	200	100	300	FR3	0	R1154D
1170.854	1.6	1183328	WORD	n/a	wordpools/wordpool.txt	WAND	2	0	10	[0, 0, 0]	n/a	0	1	0	n/a	n/a	0.0	0	0	0	FR3	0	R1154D
1172.471	0.967	1184945	WORD_OFF	n/a	n/a	WAND	2	0	10	[0, 0, 0]	n/a	0	1	0	n/a	n/a	0.0	0	0	0	FR3	0	R1154D
1173.438	1.6	1185912	WORD	n/a	wordpools/wordpool.txt	STICK	3	0	10	[0, 0, 0]	n/a	0	1	0	n/a	n/a	0.0	0	0	0	FR3	0	R1154D
1174.974	0.0	1187448	STIM_ON	n/a	n/a	STICK	3	0	10	[0, 0, 0]	n/a	1	1	500	LTCG29	LTCG30	1000.0	200	100	300	FR3	0	R1154D
1175.054	0.42	1187528	WORD_OFF	n/a	n/a	STICK	3	0	10	[0, 0, 0]	n/a	1	1	500	LTCG29	LTCG30	1000.0	200	100	300	FR3	0	R1154D
1175.474	0.498	1187948	STIM_OFF	n/a	n/a	n/a	3	0	10	[0, 0, 0]	n/a	0	1	500	LTCG29	LTCG30	1000.0	200	100	300	FR3	0	R1154D
1175.972	1.6	1188446	WORD	n/a	wordpools/wordpool.txt	BED	4	0	10	[0, 0, 0]	n/a	0	1	0	n/a	n/a	0.0	0	0	0	FR3	0	R1154D
1177.589	0.917	1190063	WORD_OFF	n/a	n/a	BED	4	0	10	[0, 0, 0]	n/a	0	1	0	n/a	n/a	0.0	0	0	0	FR3	0	R1154D
1178.506	1.6	1190979	WORD	n/a	wordpools/wordpool.txt	LAWN	5	1	10	[0, 0, 0]	n/a	0	1	0	n/a	n/a	0.0	0	0	0	FR3	0	R1154D
1180.122	0.967	1192595	WORD_OFF	n/a	n/a	LAWN	5	0	10	[0, 0, 0]	n/a	0	1	0	n/a	n/a	0.0	0	0	0	FR3	0	R1154D
1181.089	1.6	1193562	WORD	n/a	wordpools/wordpool.txt	HAND	6	0	10	[0, 0, 0]	n/a	0	1	0	n/a	n/a	0.0	0	0	0	FR3	0	R1154D
1182.707	0.85	1195180	WORD_OFF	n/a	n/a	HAND	6	0	10	[0, 0, 0]	n/a	0	1	0	n/a	n/a	0.0	0	0	0	FR3	0	R1154D
1183.557	1.6	1196030	WORD	n/a	wordpools/wordpool.txt	CHAIR	7	1	10	[0, 0, 0]	n/a	0	1	0	n/a	n/a	0.0	0	0	0	FR3	0	R1154D
1185.099	0.0	1197572	STIM_ON	n/a	n/a	CHAIR	7	1	10	[0, 0, 0]	n/a	1	1	500	LTCG29	LTCG30	1000.0	200	100	300	FR3	0	R1154D
1185.173	0.426	1197646	WORD_OFF	n/a	n/a	CHAIR	7	0	10	[0, 0, 0]	n/a	1	1	500	LTCG29	LTCG30	1000.0	200	100	300	FR3	0	R1154D
1185.599	0.557	1198072	STIM_OFF	n/a	n/a	n/a	7	0	10	[0, 0, 0]	n/a	0	1	500	LTCG29	LTCG30	1000.0	200	100	300	FR3	0	R1154D
1186.156	1.6	1198629	WORD	n/a	wordpools/wordpool.txt	CART	8	0	10	[0, 0, 0]	n/a	0	1	0	n/a	n/a	0.0	0	0	0	FR3	0	R1154D
1187.757	0.801	1200230	WORD_OFF	n/a	n/a	CART	8	0	10	[0, 0, 0]	n/a	0	1	0	n/a	n/a	0.0	0	0	0	FR3	0	R1154D
1188.558	1.6	1201031	WORD	n/a	wordpools/wordpool.txt	MAT	9	1	10	[0, 0, 0]	n/a	0	1	0	n/a	n/a	0.0	0	0	0	FR3	0	R1154D
1190.101	0.0	1202574	STIM_ON	n/a	n/a	MAT	9	1	10	[0, 0, 0]	n/a	1	1	500	LTCG29	LTCG30	1000.0	200	100	300	FR3	0	R1154D
1190.174	0.427	1202647	WORD_OFF	n/a	n/a	MAT	9	0	10	[0, 0, 0]	n/a	1	1	500	LTCG29	LTCG30	1000.0	200	100	300	FR3	0	R1154D
1190.601	0.523	1203074	STIM_OFF	n/a	n/a	n/a	9	0	10	[0, 0, 0]	n/a	0	1	500	LTCG29	LTCG30	1000.0	200	100	300	FR3	0	R1154D
1191.124	1.6	1203597	WORD	n/a	wordpools/wordpool.txt	NOSE	10	0	10	[0, 0, 0]	n/a	0	1	0	n/a	n/a	0.0	0	0	0	FR3	0	R1154D
1192.67	0.0	1205143	STIM_ON	n/a	n/a	NOSE	10	0	10	[0, 0, 0]	n/a	1	1	500	LTCG29	LTCG30	1000.0	200	100	300	FR3	0	R1154D
1192.742	0.428	1205215	WORD_OFF	n/a	n/a	NOSE	10	0	10	[0, 0, 0]	n/a	1	1	500	LTCG29	LTCG30	1000.0	200	100	300	FR3	0	R1154D
1193.17	0.439	1205643	STIM_OFF	n/a	n/a	n/a	10	0	10	[0, 0, 0]	n/a	0	1	500	LTCG29	LTCG30	1000.0	200	100	300	FR3	0	R1154D
1193.609	1.6	1206082	WORD	n/a	wordpools/wordpool.txt	STOOL	11	0	10	[0, 0, 0]	n/a	0	1	0	n/a	n/a	0.0	0	0	0	FR3	0	R1154D
1195.151	0.0	1207624	STIM_ON	n/a	n/a	STOOL	11	0	10	[0, 0, 0]	n/a	1	1	500	LTCG29	LTCG30	1000.0	200	100	300	FR3	0	R1154D
1195.224	0.427	1207697	WORD_OFF	n/a	n/a	STOOL	11	0	10	[0, 0, 0]	n/a	1	1	500	LTCG29	LTCG30	1000.0	200	100	300	FR3	0	R1154D
1195.651	0.44	1208124	STIM_OFF	n/a	n/a	n/a	11	0	10	[0, 0, 0]	n/a	0	1	500	LTCG29	LTCG30	1000.0	200	100	300	FR3	0	R1154D
1196.091	1.6	1208564	WORD	n/a	wordpools/wordpool.txt	TEA	12	0	10	[0, 0, 0]	n/a	0	1	0	n/a	n/a	0.0	0	0	0	FR3	0	R1154D
1197.641	0.0	1210113	STIM_ON	n/a	n/a	TEA	12	0	10	[0, 0, 0]	n/a	1	1	500	LTCG29	LTCG30	1000.0	200	100	300	FR3	0	R1154D
1197.709	0.0	1210181	DISTRACT_START	n/a	n/a	n/a	-999	0	10	[0, 0, 0]	n/a	1	1	500	LTCG29	LTCG30	1000.0	200	100	300	FR3	0	R1154D
1197.709	0.001	1210181	WORD_OFF	n/a	n/a	TEA	12	0	10	[0, 0, 0]	n/a	1	1	500	LTCG29	LTCG30	1000.0	200	100	300	FR3	0	R1154D
1197.71	0.016	1210182	START	n/a	n/a	n/a	-999	0	10	[-999, -999, -999]	n/a	0	1	0	n/a	n/a	0.0	0	0	0	FR3	0	R1154D
1197.726	0.415	1210198	PROB	3.193	n/a	n/a	-999	0	10	[6, 2, 2]	10	0	1	0	n/a	n/a	0.0	0	0	0	FR3	0	R1154D
1198.141	2.802	1210613	STIM_OFF	n/a	n/a	n/a	-999	0	10	[0, 0, 0]	n/a	0	1	500	LTCG29	LTCG30	1000.0	200	100	300	FR3	0	R1154D
1200.943	2.851	1213415	PROB	2.824	n/a	n/a	-999	0	10	[8, 8, 3]	19	0	1	0	n/a	n/a	0.0	0	0	0	FR3	0	R1154D
1203.794	2.033	1216266	PROB	1.998	n/a	n/a	-999	0	10	[5, 4, 6]	15	0	1	0	n/a	n/a	0.0	0	0	0	FR3	0	R1154D
1205.827	3.134	1218299	PROB	3.109	n/a	n/a	-999	0	10	[3, 2, 4]	9	0	1	0	n/a	n/a	0.0	0	0	0	FR3	0	R1154D
1208.961	2.166	1221433	PROB	2.135	n/a	n/a	-999	0	10	[3, 1, 6]	10	0	1	0	n/a	n/a	0.0	0	0	0	FR3	0	R1154D
1211.127	1.901	1223599	PROB	1.873	n/a	n/a	-999	0	10	[5, 4, 4]	14	0	1	0	n/a	n/a	0.0	0	0	0	FR3	0	R1154D
1213.028	4.787	1225500	PROB	4.787	n/a	n/a	-999	0	10	[5, 4, 2]	11	0	1	0	n/a	n/a	0.0	0	0	0	FR3	0	R1154D
1217.815	0.015	1230286	STOP	n/a	n/a	n/a	-999	0	10	[-999, -999, -999]	n/a	0	1	0	n/a	n/a	0.0	0	0	0	FR3	0	R1154D
1217.83	0.633	1230301	DISTRACT_END	n/a	n/a	n/a	-999	0	10	[0, 0, 0]	n/a	0	1	0	n/a	n/a	0.0	0	0	0	FR3	0	R1154D
1218.463	0.5	1230934	RETRIEVAL_ORIENT	n/a	n/a	n/a	-999	0	10	[0, 0, 0]	n/a	0	1	0	n/a	n/a	0.0	0	0	0	FR3	0	R1154D
1218.98	0.944	1231451	REC_START	n/a	n/a	n/a	-999	0	10	[0, 0, 0]	n/a	0	1	0	n/a	n/a	0.0	0	0	0	FR3	0	R1154D
1219.924	1.289	1232395	REC_WORD	0.944	n/a	SHIRT	1	1	10	[0, 0, 0]	n/a	0	1	0	n/a	n/a	0.0	0	0	0	FR3	0	R1154D
1221.213	0.179	1233684	REC_WORD_VV	2.233	n/a	<>	-999	0	10	[0, 0, 0]	n/a	0	1	0	n/a	n/a	0.0	0	0	0	FR3	0	R1154D
1221.392	0.675	1233863	REC_WORD	2.412	n/a	LAWN	5	1	10	[0, 0, 0]	n/a	0	1	0	n/a	n/a	0.0	0	0	0	FR3	0	R1154D
1222.067	0.784	1234538	REC_WORD	3.087	n/a	CHAIR	7	1	10	[0, 0, 0]	n/a	0	1	0	n/a	n/a	0.0	0	0	0	FR3	0	R1154D
1222.851	3.26	1235322	REC_WORD	3.871	n/a	MAT	9	1	10	[0, 0, 0]	n/a	0	1	0	n/a	n/a	0.0	0	0	0	FR3	0	R1154D
1226.111	1.0	1238582	REC_WORD_VV	7.131	n/a	<>	-999	0	10	[0, 0, 0]	n/a	0	1	0	n/a	n/a	0.0	0	0	0	FR3	0	R1154D
1227.111	1.0	1239582	REC_WORD_VV	8.131	n/a	<>	-999	0	10	[0, 0, 0]	n/a	0	1	0	n/a	n/a	0.0	0	0	0	FR3	0	R1154D
1228.111	1.913	1240582	REC_WORD_VV	9.131	n/a	<>	-999	0	10	[0, 0, 0]	n/a	0	1	0	n/a	n/a	0.0	0	0	0	FR3	0	R1154D
1230.024	1.249	1242495	REC_WORD	11.044	n/a	BLOOM	-999	0	10	[0, 0, 0]	n/a	0	1	0	n/a	n/a	0.0	0	0	0	FR3	0	R1154D
1231.273	8.68	1243744	REC_WORD_VV	12.293	n/a	<>	-999	0	10	[0, 0, 0]	n/a	0	1	0	n/a	n/a	0.0	0	0	0	FR3	0	R1154D
1239.953	7.709	1252423	REC_WORD_VV	20.973	n/a	<>	-999	0	10	[0, 0, 0]	n/a	0	1	0	n/a	n/a	0.0	0	0	0	FR3	0	R1154D
1247.662	1.0	1260132	REC_WORD_VV	28.682	n/a	<>	-999	0	10	[0, 0, 0]	n/a	0	1	0	n/a	n/a	0.0	0	0	0	FR3	0	R1154D
1248.662	0.331	1261132	REC_WORD_VV	29.682	n/a	<>	-999	0	10	[0, 0, 0]	n/a	0	1	0	n/a	n/a	0.0	0	0	0	FR3	0	R1154D
1248.993	5.209	1261463	REC_END	n/a	n/a	n/a	-999	0	10	[0, 0, 0]	n/a	0	1	0	n/a	n/a	0.0	0	0	0	FR3	0	R1154D
1254.202	0.5	1266671	TRIAL	n/a	n/a	n/a	-999	0	11	[0, 0, 0]	n/a	0	1	0	n/a	n/a	0.0	0	0	0	FR3	0	R1154D
1254.702	10.0	1267171	COUNTDOWN_START	n/a	n/a	n/a	-999	0	11	[0, 0, 0]	n/a	0	1	0	n/a	n/a	0.0	0	0	0	FR3	0	R1154D
1265.13	0.007	1277599	COUNTDOWN_END	n/a	n/a	n/a	-999	0	11	[0, 0, 0]	n/a	0	1	0	n/a	n/a	0.0	0	0	0	FR3	0	R1154D
1265.137	1.6	1277606	ORIENT	n/a	n/a	n/a	-999	0	11	[0, 0, 0]	n/a	0	1	0	n/a	n/a	0.0	0	0	0	FR3	0	R1154D
1266.755	2.167	1279224	ORIENT_OFF	n/a	n/a	n/a	-999	0	11	[0, 0, 0]	n/a	0	1	0	n/a	n/a	0.0	0	0	0	FR3	0	R1154D
1268.922	1.6	1281391	WORD	n/a	wordpools/wordpool.txt	FENCE	1	1	11	[0, 0, 0]	n/a	0	1	0	n/a	n/a	0.0	0	0	0	FR3	0	R1154D
1270.465	0.0	1282934	STIM_ON	n/a	n/a	FENCE	1	1	11	[0, 0, 0]	n/a	1	1	500	LTCG29	LTCG30	1000.0	200	100	300	FR3	0	R1154D
1270.539	0.426	1283008	WORD_OFF	n/a	n/a	FENCE	1	0	11	[0, 0, 0]	n/a	1	1	500	LTCG29	LTCG30	1000.0	200	100	300	FR3	0	R1154D
1270.965	0.358	1283434	STIM_OFF	n/a	n/a	n/a	1	0	11	[0, 0, 0]	n/a	0	1	500	LTCG29	LTCG30	1000.0	200	100	300	FR3	0	R1154D
1271.323	1.6	1283791	WORD	n/a	wordpools/wordpool.txt	DOOR	2	0	11	[0, 0, 0]	n/a	0	1	0	n/a	n/a	0.0	0	0	0	FR3	0	R1154D
1272.94	0.8	1285408	WORD_OFF	n/a	n/a	DOOR	2	0	11	[0, 0, 0]	n/a	0	1	0	n/a	n/a	0.0	0	0	0	FR3	0	R1154D
1273.74	1.6	1286208	WORD	n/a	wordpools/wordpool.txt	BOWL	3	0	11	[0, 0, 0]	n/a	0	1	0	n/a	n/a	0.0	0	0	0	FR3	0	R1154D
1275.289	0.0	1287757	STIM_ON	n/a	n/a	BOWL	3	0	11	[0, 0, 0]	n/a	1	1	500	LTCG29	LTCG30	1000.0	200	100	300	FR3	0	R1154D
1275.357	0.432	1287825	WORD_OFF	n/a	n/a	BOWL	3	0	11	[0, 0, 0]	n/a	1	1	500	LTCG29	LTCG30	1000.0	200	100	300	FR3	0	R1154D
1275.789	0.517	1288257	STIM_OFF	n/a	n/a	n/a	3	0	11	[0, 0, 0]	n/a	0	1	500	LTCG29	LTCG30	1000.0	200	100	300	FR3	0	R1154D
1276.306	1.6	1288774	WORD	n/a	wordpools/wordpool.txt	WHALE	4	0	11	[0, 0, 0]	n/a	0	1	0	n/a	n/a	0.0	0	0	0	FR3	0	R1154D
1277.924	0.983	1290392	WORD_OFF	n/a	n/a	WHALE	4	0	11	[0, 0, 0]	n/a	0	1	0	n/a	n/a	0.0	0	0	0	FR3	0	R1154D
1278.907	1.6	1291375	WORD	n/a	wordpools/wordpool.txt	TIE	5	1	11	[0, 0, 0]	n/a	0	1	0	n/a	n/a	0.0	0	0	0	FR3	0	R1154D
1280.458	0.0	1292926	STIM_ON	n/a	n/a	TIE	5	1	11	[0, 0, 0]	n/a	1	1	500	LTCG29	LTCG30	1000.0	200	100	300	FR3	0	R1154D
1280.524	0.434	1292992	WORD_OFF	n/a	n/a	TIE	5	0	11	[0, 0, 0]	n/a	1	1	500	LTCG29	LTCG30	1000.0	200	100	300	FR3	0	R1154D
1280.958	0.383	1293426	STIM_OFF	n/a	n/a	n/a	5	0	11	[0, 0, 0]	n/a	0	1	500	LTCG29	LTCG30	1000.0	200	100	300	FR3	0	R1154D
1281.341	1.6	1293809	WORD	n/a	wordpools/wordpool.txt	FACE	6	1	11	[0, 0, 0]	n/a	0	1	0	n/a	n/a	0.0	0	0	0	FR3	0	R1154D
1282.958	0.834	1295426	WORD_OFF	n/a	n/a	FACE	6	0	11	[0, 0, 0]	n/a	0	1	0	n/a	n/a	0.0	0	0	0	FR3	0	R1154D
1283.792	1.6	1296260	WORD	n/a	wordpools/wordpool.txt	BAG	7	0	11	[0, 0, 0]	n/a	0	1	0	n/a	n/a	0.0	0	0	0	FR3	0	R1154D
1285.409	0.865	1297877	WORD_OFF	n/a	n/a	BAG	7	0	11	[0, 0, 0]	n/a	0	1	0	n/a	n/a	0.0	0	0	0	FR3	0	R1154D
1286.274	1.6	1298742	WORD	n/a	wordpools/wordpool.txt	TRAY	8	0	11	[0, 0, 0]	n/a	0	1	0	n/a	n/a	0.0	0	0	0	FR3	0	R1154D
1287.819	0.0	1300287	STIM_ON	n/a	n/a	TRAY	8	0	11	[0, 0, 0]	n/a	1	1	500	LTCG29	LTCG30	1000.0	200	100	300	FR3	0	R1154D
1287.875	0.444	1300343	WORD_OFF	n/a	n/a	TRAY	8	0	11	[0, 0, 0]	n/a	1	1	500	LTCG29	LTCG30	1000.0	200	100	300	FR3	0	R1154D
1288.319	0.34	1300787	STIM_OFF	n/a	n/a	n/a	8	0	11	[0, 0, 0]	n/a	0	1	500	LTCG29	LTCG30	1000.0	200	100	300	FR3	0	R1154D
1288.659	1.6	1301127	WORD	n/a	wordpools/wordpool.txt	FOOT	9	1	11	[0, 0, 0]	n/a	0	1	0	n/a	n/a	0.0	0	0	0	FR3	0	R1154D
1290.275	0.817	1302742	WORD_OFF	n/a	n/a	FOOT	9	0	11	[0, 0, 0]	n/a	0	1	0	n/a	n/a	0.0	0	0	0	FR3	0	R1154D
1291.092	1.6	1303559	WORD	n/a	wordpools/wordpool.txt	SMILE	10	0	11	[0, 0, 0]	n/a	0	1	0	n/a	n/a	0.0	0	0	0	FR3	0	R1154D
1292.643	0.0	1305110	STIM_ON	n/a	n/a	SMILE	10	0	11	[0, 0, 0]	n/a	1	1	500	LTCG29	LTCG30	1000.0	200	100	300	FR3	0	R1154D
1292.71	0.434	1305177	WORD_OFF	n/a	n/a	SMILE	10	0	11	[0, 0, 0]	n/a	1	1	500	LTCG29	LTCG30	1000.0	200	100	300	FR3	0	R1154D
1293.144	0.349	1305611	STIM_OFF	n/a	n/a	n/a	10	0	11	[0, 0, 0]	n/a	0	1	500	LTCG29	LTCG30	1000.0	200	100	300	FR3	0	R1154D
1293.493	1.6	1305960	WORD	n/a	wordpools/wordpool.txt	BRUSH	11	1	11	[0, 0, 0]	n/a	0	1	0	n/a	n/a	0.0	0	0	0	FR3	0	R1154D
1295.109	0.901	1307576	WORD_OFF	n/a	n/a	BRUSH	11	0	11	[0, 0, 0]	n/a	0	1	0	n/a	n/a	0.0	0	0	0	FR3	0	R1154D
1296.01	1.6	1308477	WORD	n/a	wordpools/wordpool.txt	ARM	12	1	11	[0, 0, 0]	n/a	0	1	0	n/a	n/a	0.0	0	0	0	FR3	0	R1154D
1297.627	0.0	1310094	WORD_OFF	n/a	n/a	ARM	12	0	11	[0, 0, 0]	n/a	0	1	0	n/a	n/a	0.0	0	0	0	FR3	0	R1154D
1297.627	0.001	1310094	DISTRACT_START	n/a	n/a	n/a	-999	0	11	[0, 0, 0]	n/a	0	1	0	n/a	n/a	0.0	0	0	0	FR3	0	R1154D
1297.628	0.016	1310095	START	n/a	n/a	n/a	-999	0	11	[-999, -999, -999]	n/a	0	1	0	n/a	n/a	0.0	0	0	0	FR3	0	R1154D
1297.644	2.817	1310111	PROB	2.781	n/a	n/a	-999	0	11	[9, 7, 5]	21	0	1	0	n/a	n/a	0.0	0	0	0	FR3	0	R1154D
1300.461	3.184	1312928	PROB	3.147	n/a	n/a	-999	0	11	[6, 4, 3]	13	0	1	0	n/a	n/a	0.0	0	0	0	FR3	0	R1154D
1303.645	1.251	1316112	PROB	1.212	n/a	n/a	-999	0	11	[1, 4, 6]	11	0	1	0	n/a	n/a	0.0	0	0	0	FR3	0	R1154D
1304.896	2.149	1317363	PROB	2.111	n/a	n/a	-999	0	11	[2, 8, 6]	16	0	1	0	n/a	n/a	0.0	0	0	0	FR3	0	R1154D
1307.045	2.451	1319512	PROB	2.42	n/a	n/a	-999	0	11	[3, 5, 8]	16	0	1	0	n/a	n/a	0.0	0	0	0	FR3	0	R1154D
1309.496	2.884	1321962	PROB	2.856	n/a	n/a	-999	0	11	[8, 5, 7]	20	0	1	0	n/a	n/a	0.0	0	0	0	FR3	0	R1154D
1312.38	2.634	1324846	PROB	2.611	n/a	n/a	-999	0	11	[4, 6, 9]	19	0	1	0	n/a	n/a	0.0	0	0	0	FR3	0	R1154D
1315.014	1.85	1327480	PROB	1.827	n/a	n/a	-999	0	11	[7, 3, 1]	11	0	1	0	n/a	n/a	0.0	0	0	0	FR3	0	R1154D
1316.864	3.008	1329330	PROB	3.008	n/a	n/a	-999	0	11	[9, 3, 4]	16	0	1	0	n/a	n/a	0.0	0	0	0	FR3	0	R1154D
1319.872	0.01	1332338	STOP	n/a	n/a	n/a	-999	0	11	[-999, -999, -999]	n/a	0	1	0	n/a	n/a	0.0	0	0	0	FR3	0	R1154D
1319.882	0.516	1332348	DISTRACT_END	n/a	n/a	n/a	-999	0	11	[0, 0, 0]	n/a	0	1	0	n/a	n/a	0.0	0	0	0	FR3	0	R1154D
1320.398	0.5	1332864	RETRIEVAL_ORIENT	n/a	n/a	n/a	-999	0	11	[0, 0, 0]	n/a	0	1	0	n/a	n/a	0.0	0	0	0	FR3	0	R1154D
1320.916	0.551	1333382	REC_START	n/a	n/a	n/a	-999	0	11	[0, 0, 0]	n/a	0	1	0	n/a	n/a	0.0	0	0	0	FR3	0	R1154D
1321.467	2.549	1333933	REC_WORD	0.551	n/a	FENCE	1	1	11	[0, 0, 0]	n/a	0	1	0	n/a	n/a	0.0	0	0	0	FR3	0	R1154D
1324.016	4.463	1336482	REC_WORD_VV	3.1	n/a	<>	-999	0	11	[0, 0, 0]	n/a	0	1	0	n/a	n/a	0.0	0	0	0	FR3	0	R1154D
1328.479	2.135	1340944	REC_WORD	7.563	n/a	TIE	5	1	11	[0, 0, 0]	n/a	0	1	0	n/a	n/a	0.0	0	0	0	FR3	0	R1154D
1330.614	3.1	1343079	REC_WORD_VV	9.698	n/a	<>	-999	0	11	[0, 0, 0]	n/a	0	1	0	n/a	n/a	0.0	0	0	0	FR3	0	R1154D
1333.714	1.91	1346179	REC_WORD	12.798	n/a	ARM	12	1	11	[0, 0, 0]	n/a	0	1	0	n/a	n/a	0.0	0	0	0	FR3	0	R1154D
1335.624	2.173	1348089	REC_WORD	14.708	n/a	BRUSH	11	1	11	[0, 0, 0]	n/a	0	1	0	n/a	n/a	0.0	0	0	0	FR3	0	R1154D
1337.797	8.699	1350262	REC_WORD	16.881	n/a	FACE	6	1	11	[0, 0, 0]	n/a	0	1	0	n/a	n/a	0.0	0	0	0	FR3	0	R1154D
1346.496	4.428	1358960	REC_WORD	25.58	n/a	FOOT	9	1	11	[0, 0, 0]	n/a	0	1	0	n/a	n/a	0.0	0	0	0	FR3	0	R1154D
1350.924	5.196	1363388	REC_END	n/a	n/a	n/a	-999	0	11	[0, 0, 0]	n/a	0	1	0	n/a	n/a	0.0	0	0	0	FR3	0	R1154D
1356.12	0.5	1368584	TRIAL	n/a	n/a	n/a	-999	0	12	[0, 0, 0]	n/a	0	0	0	n/a	n/a	0.0	0	0	0	FR3	0	R1154D
1356.62	10.0	1369084	COUNTDOWN_START	n/a	n/a	n/a	-999	0	12	[0, 0, 0]	n/a	0	0	0	n/a	n/a	0.0	0	0	0	FR3	0	R1154D
1367.048	0.008	1379511	COUNTDOWN_END	n/a	n/a	n/a	-999	0	12	[0, 0, 0]	n/a	0	0	0	n/a	n/a	0.0	0	0	0	FR3	0	R1154D
1367.056	1.6	1379519	ORIENT	n/a	n/a	n/a	-999	0	12	[0, 0, 0]	n/a	0	0	0	n/a	n/a	0.0	0	0	0	FR3	0	R1154D
1368.674	2.0	1381137	ORIENT_OFF	n/a	n/a	n/a	-999	0	12	[0, 0, 0]	n/a	0	0	0	n/a	n/a	0.0	0	0	0	FR3	0	R1154D
1370.674	1.6	1383137	WORD	n/a	wordpools/wordpool.txt	GOLD	1	1	12	[0, 0, 0]	n/a	0	0	0	n/a	n/a	0.0	0	0	0	FR3	0	R1154D
1372.29	0.984	1384753	WORD_OFF	n/a	n/a	GOLD	1	0	12	[0, 0, 0]	n/a	0	0	0	n/a	n/a	0.0	0	0	0	FR3	0	R1154D
1373.274	1.6	1385737	WORD	n/a	wordpools/wordpool.txt	BANK	2	1	12	[0, 0, 0]	n/a	0	0	0	n/a	n/a	0.0	0	0	0	FR3	0	R1154D
1374.892	0.9	1387355	WORD_OFF	n/a	n/a	BANK	2	0	12	[0, 0, 0]	n/a	0	0	0	n/a	n/a	0.0	0	0	0	FR3	0	R1154D
1375.792	1.6	1388255	WORD	n/a	wordpools/wordpool.txt	SHEET	3	0	12	[0, 0, 0]	n/a	0	0	0	n/a	n/a	0.0	0	0	0	FR3	0	R1154D
1377.409	1.0	1389872	WORD_OFF	n/a	n/a	SHEET	3	0	12	[0, 0, 0]	n/a	0	0	0	n/a	n/a	0.0	0	0	0	FR3	0	R1154D
1378.409	1.6	1390872	WORD	n/a	wordpools/wordpool.txt	PEARL	4	0	12	[0, 0, 0]	n/a	0	0	0	n/a	n/a	0.0	0	0	0	FR3	0	R1154D
1380.025	0.884	1392488	WORD_OFF	n/a	n/a	PEARL	4	0	12	[0, 0, 0]	n/a	0	0	0	n/a	n/a	0.0	0	0	0	FR3	0	R1154D
1380.909	1.6	1393372	WORD	n/a	wordpools/wordpool.txt	MOOSE	5	1	12	[0, 0, 0]	n/a	0	0	0	n/a	n/a	0.0	0	0	0	FR3	0	R1154D
1382.526	0.851	1394989	WORD_OFF	n/a	n/a	MOOSE	5	0	12	[0, 0, 0]	n/a	0	0	0	n/a	n/a	0.0	0	0	0	FR3	0	R1154D
1383.377	1.6	1395839	WORD	n/a	wordpools/wordpool.txt	CROWN	6	1	12	[0, 0, 0]	n/a	0	0	0	n/a	n/a	0.0	0	0	0	FR3	0	R1154D
1384.994	0.816	1397456	WORD_OFF	n/a	n/a	CROWN	6	0	12	[0, 0, 0]	n/a	0	0	0	n/a	n/a	0.0	0	0	0	FR3	0	R1154D
1385.81	1.6	1398272	WORD	n/a	wordpools/wordpool.txt	CLOCK	7	0	12	[0, 0, 0]	n/a	0	0	0	n/a	n/a	0.0	0	0	0	FR3	0	R1154D
1387.427	0.883	1399889	WORD_OFF	n/a	n/a	CLOCK	7	0	12	[0, 0, 0]	n/a	0	0	0	n/a	n/a	0.0	0	0	0	FR3	0	R1154D
1388.31	1.6	1400772	WORD	n/a	wordpools/wordpool.txt	NET	8	0	12	[0, 0, 0]	n/a	0	0	0	n/a	n/a	0.0	0	0	0	FR3	0	R1154D
1389.928	1.0	1402390	WORD_OFF	n/a	n/a	NET	8	0	12	[0, 0, 0]	n/a	0	0	0	n/a	n/a	0.0	0	0	0	FR3	0	R1154D
1390.928	1.6	1403390	WORD	n/a	wordpools/wordpool.txt	CASH	9	1	12	[0, 0, 0]	n/a	0	0	0	n/a	n/a	0.0	0	0	0	FR3	0	R1154D
1392.545	1.0	1405007	WORD_OFF	n/a	n/a	CASH	9	0	12	[0, 0, 0]	n/a	0	0	0	n/a	n/a	0.0	0	0	0	FR3	0	R1154D
1393.545	1.6	1406007	WORD	n/a	wordpools/wordpool.txt	MAIL	10	0	12	[0, 0, 0]	n/a	0	0	0	n/a	n/a	0.0	0	0	0	FR3	0	R1154D
1395.161	0.818	1407623	WORD_OFF	n/a	n/a	MAIL	10	0	12	[0, 0, 0]	n/a	0	0	0	n/a	n/a	0.0	0	0	0	FR3	0	R1154D
1395.979	1.6	1408441	WORD	n/a	wordpools/wordpool.txt	STORE	11	0	12	[0, 0, 0]	n/a	0	0	0	n/a	n/a	0.0	0	0	0	FR3	0	R1154D
1397.596	0.817	1410058	WORD_OFF	n/a	n/a	STORE	11	0	12	[0, 0, 0]	n/a	0	0	0	n/a	n/a	0.0	0	0	0	FR3	0	R1154D
1398.413	1.6	1410875	WORD	n/a	wordpools/wordpool.txt	CLOWN	12	1	12	[0, 0, 0]	n/a	0	0	0	n/a	n/a	0.0	0	0	0	FR3	0	R1154D
1400.029	0.0	1412491	WORD_OFF	n/a	n/a	CLOWN	12	0	12	[0, 0, 0]	n/a	0	0	0	n/a	n/a	0.0	0	0	0	FR3	0	R1154D
1400.029	0.0	1412491	DISTRACT_START	n/a	n/a	n/a	-999	0	12	[0, 0, 0]	n/a	0	0	0	n/a	n/a	0.0	0	0	0	FR3	0	R1154D
1400.029	0.016	1412491	START	n/a	n/a	n/a	-999	0	12	[-999, -999, -999]	n/a	0	0	0	n/a	n/a	0.0	0	0	0	FR3	0	R1154D
1400.045	3.984	1412507	PROB	3.947	n/a	n/a	-999	0	12	[5, 8, 9]	22	0	0	0	n/a	n/a	0.0	0	0	0	FR3	0	R1154D
1404.029	2.267	1416490	PROB	2.234	n/a	n/a	-999	0	12	[9, 2, 7]	18	0	0	0	n/a	n/a	0.0	0	0	0	FR3	0	R1154D
1406.296	2.552	1418757	PROB	2.528	n/a	n/a	-999	0	12	[7, 7, 5]	19	0	0	0	n/a	n/a	0.0	0	0	0	FR3	0	R1154D
1408.848	1.934	1421309	PROB	1.897	n/a	n/a	-999	0	12	[3, 8, 2]	13	0	0	0	n/a	n/a	0.0	0	0	0	FR3	0	R1154D
1410.782	2.067	1423243	PROB	2.034	n/a	n/a	-999	0	12	[7, 1, 3]	11	0	0	0	n/a	n/a	0.0	0	0	0	FR3	0	R1154D
1412.849	1.7	1425310	PROB	1.664	n/a	n/a	-999	0	12	[1, 3, 2]	6	0	0	0	n/a	n/a	0.0	0	0	0	FR3	0	R1154D
1414.549	3.434	1427010	PROB	3.396	n/a	n/a	-999	0	12	[8, 4, 8]	24	0	0	0	n/a	n/a	0.0	0	0	0	FR3	0	R1154D
1417.983	2.505	1430444	PROB	2.505	n/a	n/a	-999	0	12	[6, 3, 5]	14	0	0	0	n/a	n/a	0.0	0	0	0	FR3	0	R1154D
1420.488	0.012	1432948	STOP	n/a	n/a	n/a	-999	0	12	[-999, -999, -999]	n/a	0	0	0	n/a	n/a	0.0	0	0	0	FR3	0	R1154D
1420.5	0.515	1432960	DISTRACT_END	n/a	n/a	n/a	-999	0	12	[0, 0, 0]	n/a	0	0	0	n/a	n/a	0.0	0	0	0	FR3	0	R1154D
1421.015	0.5	1433475	RETRIEVAL_ORIENT	n/a	n/a	n/a	-999	0	12	[0, 0, 0]	n/a	0	0	0	n/a	n/a	0.0	0	0	0	FR3	0	R1154D
1421.534	0.268	1433994	REC_START	n/a	n/a	n/a	-999	0	12	[0, 0, 0]	n/a	0	0	0	n/a	n/a	0.0	0	0	0	FR3	0	R1154D
1421.802	1.147	1434262	REC_WORD_VV	0.268	n/a	<>	-999	0	12	[0, 0, 0]	n/a	0	0	0	n/a	n/a	0.0	0	0	0	FR3	0	R1154D
1422.949	0.745	1435409	REC_WORD	1.415	n/a	BANK	2	1	12	[0, 0, 0]	n/a	0	0	0	n/a	n/a	0.0	0	0	0	FR3	0	R1154D
1423.694	0.758	1436154	REC_WORD	2.16	n/a	CROWN	6	1	12	[0, 0, 0]	n/a	0	0	0	n/a	n/a	0.0	0	0	0	FR3	0	R1154D
1424.452	1.218	1436912	REC_WORD	2.918	n/a	CLOWN	12	1	12	[0, 0, 0]	n/a	0	0	0	n/a	n/a	0.0	0	0	0	FR3	0	R1154D
1425.67	0.819	1438130	REC_WORD	4.136	n/a	CASH	9	1	12	[0, 0, 0]	n/a	0	0	0	n/a	n/a	0.0	0	0	0	FR3	0	R1154D
1426.489	3.736	1438949	REC_WORD	4.955	n/a	GOLD	1	1	12	[0, 0, 0]	n/a	0	0	0	n/a	n/a	0.0	0	0	0	FR3	0	R1154D
1430.225	0.521	1442685	REC_WORD_VV	8.691	n/a	<>	-999	0	12	[0, 0, 0]	n/a	0	0	0	n/a	n/a	0.0	0	0	0	FR3	0	R1154D
1430.746	20.799	1443206	REC_WORD	9.212	n/a	MOOSE	5	1	12	[0, 0, 0]	n/a	0	0	0	n/a	n/a	0.0	0	0	0	FR3	0	R1154D
1451.545	5.228	1464004	REC_END	n/a	n/a	n/a	-999	0	12	[0, 0, 0]	n/a	0	0	0	n/a	n/a	0.0	0	0	0	FR3	0	R1154D
1456.773	0.5	1469232	TRIAL	n/a	n/a	n/a	-999	0	13	[0, 0, 0]	n/a	0	1	0	n/a	n/a	0.0	0	0	0	FR3	0	R1154D
1457.273	10.0	1469732	COUNTDOWN_START	n/a	n/a	n/a	-999	0	13	[0, 0, 0]	n/a	0	1	0	n/a	n/a	0.0	0	0	0	FR3	0	R1154D
1467.701	0.008	1480159	COUNTDOWN_END	n/a	n/a	n/a	-999	0	13	[0, 0, 0]	n/a	0	1	0	n/a	n/a	0.0	0	0	0	FR3	0	R1154D
1467.709	1.6	1480167	ORIENT	n/a	n/a	n/a	-999	0	13	[0, 0, 0]	n/a	0	1	0	n/a	n/a	0.0	0	0	0	FR3	0	R1154D
1469.326	1.865	1481784	ORIENT_OFF	n/a	n/a	n/a	-999	0	13	[0, 0, 0]	n/a	0	1	0	n/a	n/a	0.0	0	0	0	FR3	0	R1154D
1471.191	1.6	1483649	WORD	n/a	wordpools/wordpool.txt	ROPE	1	0	13	[0, 0, 0]	n/a	0	1	0	n/a	n/a	0.0	0	0	0	FR3	0	R1154D
1472.747	0.0	1485205	STIM_ON	n/a	n/a	ROPE	1	0	13	[0, 0, 0]	n/a	1	1	500	LTCG29	LTCG30	1000.0	200	100	300	FR3	0	R1154D
1472.793	0.454	1485251	WORD_OFF	n/a	n/a	ROPE	1	0	13	[0, 0, 0]	n/a	1	1	500	LTCG29	LTCG30	1000.0	200	100	300	FR3	0	R1154D
1473.247	0.463	1485705	STIM_OFF	n/a	n/a	n/a	1	0	13	[0, 0, 0]	n/a	0	1	500	LTCG29	LTCG30	1000.0	200	100	300	FR3	0	R1154D
1473.71	1.6	1486168	WORD	n/a	wordpools/wordpool.txt	PALM	2	1	13	[0, 0, 0]	n/a	0	1	0	n/a	n/a	0.0	0	0	0	FR3	0	R1154D
1475.327	0.766	1487785	WORD_OFF	n/a	n/a	PALM	2	0	13	[0, 0, 0]	n/a	0	1	0	n/a	n/a	0.0	0	0	0	FR3	0	R1154D
1476.093	1.6	1488550	WORD	n/a	wordpools/wordpool.txt	BUSH	3	1	13	[0, 0, 0]	n/a	0	1	0	n/a	n/a	0.0	0	0	0	FR3	0	R1154D
1477.648	0.0	1490105	STIM_ON	n/a	n/a	BUSH	3	1	13	[0, 0, 0]	n/a	1	1	500	LTCG29	LTCG30	1000.0	200	100	300	FR3	0	R1154D
1477.71	0.438	1490167	WORD_OFF	n/a	n/a	BUSH	3	0	13	[0, 0, 0]	n/a	1	1	500	LTCG29	LTCG30	1000.0	200	100	300	FR3	0	R1154D
1478.148	0.462	1490605	STIM_OFF	n/a	n/a	n/a	3	0	13	[0, 0, 0]	n/a	0	1	500	LTCG29	LTCG30	1000.0	200	100	300	FR3	0	R1154D
1478.61	1.6	1491067	WORD	n/a	wordpools/wordpool.txt	BARN	4	0	13	[0, 0, 0]	n/a	0	1	0	n/a	n/a	0.0	0	0	0	FR3	0	R1154D
1480.227	0.933	1492684	WORD_OFF	n/a	n/a	BARN	4	0	13	[0, 0, 0]	n/a	0	1	0	n/a	n/a	0.0	0	0	0	FR3	0	R1154D
1481.16	1.6	1493617	WORD	n/a	wordpools/wordpool.txt	WEED	5	1	13	[0, 0, 0]	n/a	0	1	0	n/a	n/a	0.0	0	0	0	FR3	0	R1154D
1482.778	1.0	1495235	WORD_OFF	n/a	n/a	WEED	5	0	13	[0, 0, 0]	n/a	0	1	0	n/a	n/a	0.0	0	0	0	FR3	0	R1154D
1483.778	1.6	1496235	WORD	n/a	wordpools/wordpool.txt	LAMB	6	0	13	[0, 0, 0]	n/a	0	1	0	n/a	n/a	0.0	0	0	0	FR3	0	R1154D
1485.395	0.95	1497852	WORD_OFF	n/a	n/a	LAMB	6	0	13	[0, 0, 0]	n/a	0	1	0	n/a	n/a	0.0	0	0	0	FR3	0	R1154D
1486.345	1.6	1498802	WORD	n/a	wordpools/wordpool.txt	OAK	7	0	13	[0, 0, 0]	n/a	0	1	0	n/a	n/a	0.0	0	0	0	FR3	0	R1154D
1487.962	0.867	1500419	WORD_OFF	n/a	n/a	OAK	7	0	13	[0, 0, 0]	n/a	0	1	0	n/a	n/a	0.0	0	0	0	FR3	0	R1154D
1488.829	1.6	1501286	WORD	n/a	wordpools/wordpool.txt	BREAD	8	0	13	[0, 0, 0]	n/a	0	1	0	n/a	n/a	0.0	0	0	0	FR3	0	R1154D
1490.391	0.0	1502848	STIM_ON	n/a	n/a	BREAD	8	0	13	[0, 0, 0]	n/a	1	1	500	LTCG29	LTCG30	1000.0	200	100	300	FR3	0	R1154D
1490.446	0.445	1502903	WORD_OFF	n/a	n/a	BREAD	8	0	13	[0, 0, 0]	n/a	1	1	500	LTCG29	LTCG30	1000.0	200	100	300	FR3	0	R1154D
1490.891	0.354	1503348	STIM_OFF	n/a	n/a	n/a	8	0	13	[0, 0, 0]	n/a	0	1	500	LTCG29	LTCG30	1000.0	200	100	300	FR3	0	R1154D
1491.245	1.6	1503702	WORD	n/a	wordpools/wordpool.txt	POOL	9	0	13	[0, 0, 0]	n/a	0	1	0	n/a	n/a	0.0	0	0	0	FR3	0	R1154D
1492.846	0.867	1505303	WORD_OFF	n/a	n/a	POOL	9	0	13	[0, 0, 0]	n/a	0	1	0	n/a	n/a	0.0	0	0	0	FR3	0	R1154D
1493.713	1.6	1506170	WORD	n/a	wordpools/wordpool.txt	BRANCH	10	1	13	[0, 0, 0]	n/a	0	1	0	n/a	n/a	0.0	0	0	0	FR3	0	R1154D
1495.27	0.0	1507726	STIM_ON	n/a	n/a	BRANCH	10	1	13	[0, 0, 0]	n/a	1	1	500	LTCG29	LTCG30	1000.0	200	100	300	FR3	0	R1154D
1495.33	0.44	1507786	WORD_OFF	n/a	n/a	BRANCH	10	0	13	[0, 0, 0]	n/a	1	1	500	LTCG29	LTCG30	1000.0	200	100	300	FR3	0	R1154D
1495.77	0.509	1508226	STIM_OFF	n/a	n/a	n/a	10	0	13	[0, 0, 0]	n/a	0	1	500	LTCG29	LTCG30	1000.0	200	100	300	FR3	0	R1154D
1496.279	1.6	1508735	WORD	n/a	wordpools/wordpool.txt	STEAK	11	0	13	[0, 0, 0]	n/a	0	1	0	n/a	n/a	0.0	0	0	0	FR3	0	R1154D
1497.897	0.767	1510353	WORD_OFF	n/a	n/a	STEAK	11	0	13	[0, 0, 0]	n/a	0	1	0	n/a	n/a	0.0	0	0	0	FR3	0	R1154D
1498.664	1.6	1511120	WORD	n/a	wordpools/wordpool.txt	SWAMP	12	0	13	[0, 0, 0]	n/a	0	1	0	n/a	n/a	0.0	0	0	0	FR3	0	R1154D
1500.226	0.0	1512682	STIM_ON	n/a	n/a	SWAMP	12	0	13	[0, 0, 0]	n/a	1	1	500	LTCG29	LTCG30	1000.0	200	100	300	FR3	0	R1154D
1500.28	0.0	1512736	WORD_OFF	n/a	n/a	SWAMP	12	0	13	[0, 0, 0]	n/a	1	1	500	LTCG29	LTCG30	1000.0	200	100	300	FR3	0	R1154D
1500.28	0.001	1512736	DISTRACT_START	n/a	n/a	n/a	-999	0	13	[0, 0, 0]	n/a	1	1	500	LTCG29	LTCG30	1000.0	200	100	300	FR3	0	R1154D
1500.281	0.016	1512737	START	n/a	n/a	n/a	-999	0	13	[-999, -999, -999]	n/a	0	1	0	n/a	n/a	0.0	0	0	0	FR3	0	R1154D
1500.297	0.429	1512753	PROB	3.839	n/a	n/a	-999	0	13	[9, 3, 2]	14	0	1	0	n/a	n/a	0.0	0	0	0	FR3	0	R1154D
1500.726	3.438	1513182	STIM_OFF	n/a	n/a	n/a	-999	0	13	[0, 0, 0]	n/a	0	1	500	LTCG29	LTCG30	1000.0	200	100	300	FR3	0	R1154D
1504.164	3.269	1516620	PROB	3.245	n/a	n/a	-999	0	13	[8, 4, 4]	6	0	1	0	n/a	n/a	0.0	0	0	0	FR3	0	R1154D
1507.433	2.632	1519889	PROB	2.597	n/a	n/a	-999	0	13	[3, 4, 3]	10	0	1	0	n/a	n/a	0.0	0	0	0	FR3	0	R1154D
1510.065	3.251	1522521	PROB	3.222	n/a	n/a	-999	0	13	[6, 7, 2]	15	0	1	0	n/a	n/a	0.0	0	0	0	FR3	0	R1154D
1513.316	3.402	1525771	PROB	3.379	n/a	n/a	-999	0	13	[5, 4, 3]	12	0	1	0	n/a	n/a	0.0	0	0	0	FR3	0	R1154D
1516.718	1.85	1529173	PROB	1.826	n/a	n/a	-999	0	13	[1, 2, 3]	6	0	1	0	n/a	n/a	0.0	0	0	0	FR3	0	R1154D
1518.568	1.856	1531023	PROB	1.856	n/a	n/a	-999	0	13	[1, 7, 1]	9	0	1	0	n/a	n/a	0.0	0	0	0	FR3	0	R1154D
1520.424	0.011	1532879	STOP	n/a	n/a	n/a	-999	0	13	[-999, -999, -999]	n/a	0	1	0	n/a	n/a	0.0	0	0	0	FR3	0	R1154D
1520.435	0.582	1532890	DISTRACT_END	n/a	n/a	n/a	-999	0	13	[0, 0, 0]	n/a	0	1	0	n/a	n/a	0.0	0	0	0	FR3	0	R1154D
1521.017	0.5	1533472	RETRIEVAL_ORIENT	n/a	n/a	n/a	-999	0	13	[0, 0, 0]	n/a	0	1	0	n/a	n/a	0.0	0	0	0	FR3	0	R1154D
1521.536	2.525	1533991	REC_START	n/a	n/a	n/a	-999	0	13	[0, 0, 0]	n/a	0	1	0	n/a	n/a	0.0	0	0	0	FR3	0	R1154D
1524.061	0.602	1536516	REC_WORD	2.525	n/a	WEED	5	1	13	[0, 0, 0]	n/a	0	1	0	n/a	n/a	0.0	0	0	0	FR3	0	R1154D
1524.663	0.572	1537118	REC_WORD	3.127	n/a	BUSH	3	1	13	[0, 0, 0]	n/a	0	1	0	n/a	n/a	0.0	0	0	0	FR3	0	R1154D
1525.235	5.005	1537690	REC_WORD	3.699	n/a	BRANCH	10	1	13	[0, 0, 0]	n/a	0	1	0	n/a	n/a	0.0	0	0	0	FR3	0	R1154D
1530.24	1.224	1542695	REC_WORD	8.704	n/a	PALM	2	1	13	[0, 0, 0]	n/a	0	1	0	n/a	n/a	0.0	0	0	0	FR3	0	R1154D
1531.464	20.084	1543919	REC_WORD_VV	9.928	n/a	<>	-999	0	13	[0, 0, 0]	n/a	0	1	0	n/a	n/a	0.0	0	0	0	FR3	0	R1154D
1551.548	5.493	1564001	REC_END	n/a	n/a	n/a	-999	0	13	[0, 0, 0]	n/a	0	1	0	n/a	n/a	0.0	0	0	0	FR3	0	R1154D
1557.041	0.5	1569494	TRIAL	n/a	n/a	n/a	-999	0	14	[0, 0, 0]	n/a	0	1	0	n/a	n/a	0.0	0	0	0	FR3	0	R1154D
1557.541	10.0	1569994	COUNTDOWN_START	n/a	n/a	n/a	-999	0	14	[0, 0, 0]	n/a	0	1	0	n/a	n/a	0.0	0	0	0	FR3	0	R1154D
1567.969	0.008	1580422	COUNTDOWN_END	n/a	n/a	n/a	-999	0	14	[0, 0, 0]	n/a	0	1	0	n/a	n/a	0.0	0	0	0	FR3	0	R1154D
1567.977	1.6	1580430	ORIENT	n/a	n/a	n/a	-999	0	14	[0, 0, 0]	n/a	0	1	0	n/a	n/a	0.0	0	0	0	FR3	0	R1154D
1569.594	1.934	1582046	ORIENT_OFF	n/a	n/a	n/a	-999	0	14	[0, 0, 0]	n/a	0	1	0	n/a	n/a	0.0	0	0	0	FR3	0	R1154D
1571.528	1.6	1583980	WORD	n/a	wordpools/wordpool.txt	VASE	1	1	14	[0, 0, 0]	n/a	0	1	0	n/a	n/a	0.0	0	0	0	FR3	0	R1154D
1573.144	0.95	1585596	WORD_OFF	n/a	n/a	VASE	1	0	14	[0, 0, 0]	n/a	0	1	0	n/a	n/a	0.0	0	0	0	FR3	0	R1154D
1574.094	1.6	1586546	WORD	n/a	wordpools/wordpool.txt	DESK	2	0	14	[0, 0, 0]	n/a	0	1	0	n/a	n/a	0.0	0	0	0	FR3	0	R1154D
1575.712	0.9	1588164	WORD_OFF	n/a	n/a	DESK	2	0	14	[0, 0, 0]	n/a	0	1	0	n/a	n/a	0.0	0	0	0	FR3	0	R1154D
1576.612	1.6	1589064	WORD	n/a	wordpools/wordpool.txt	RUG	3	0	14	[0, 0, 0]	n/a	0	1	0	n/a	n/a	0.0	0	0	0	FR3	0	R1154D
1578.177	0.0	1590629	STIM_ON	n/a	n/a	RUG	3	0	14	[0, 0, 0]	n/a	1	1	500	LTCG29	LTCG30	1000.0	200	100	300	FR3	0	R1154D
1578.228	0.449	1590680	WORD_OFF	n/a	n/a	RUG	3	0	14	[0, 0, 0]	n/a	1	1	500	LTCG29	LTCG30	1000.0	200	100	300	FR3	0	R1154D
1578.677	0.484	1591129	STIM_OFF	n/a	n/a	n/a	3	0	14	[0, 0, 0]	n/a	0	1	500	LTCG29	LTCG30	1000.0	200	100	300	FR3	0	R1154D
1579.161	1.6	1591613	WORD	n/a	wordpools/wordpool.txt	TOAST	4	0	14	[0, 0, 0]	n/a	0	1	0	n/a	n/a	0.0	0	0	0	FR3	0	R1154D
1580.762	0.8	1593214	WORD_OFF	n/a	n/a	TOAST	4	0	14	[0, 0, 0]	n/a	0	1	0	n/a	n/a	0.0	0	0	0	FR3	0	R1154D
1581.562	1.6	1594014	WORD	n/a	wordpools/wordpool.txt	COUCH	5	0	14	[0, 0, 0]	n/a	0	1	0	n/a	n/a	0.0	0	0	0	FR3	0	R1154D
1583.13	0.0	1595582	STIM_ON	n/a	n/a	COUCH	5	0	14	[0, 0, 0]	n/a	1	1	500	LTCG29	LTCG30	1000.0	200	100	300	FR3	0	R1154D
1583.178	0.452	1595630	WORD_OFF	n/a	n/a	COUCH	5	0	14	[0, 0, 0]	n/a	1	1	500	LTCG29	LTCG30	1000.0	200	100	300	FR3	0	R1154D
1583.63	0.549	1596082	STIM_OFF	n/a	n/a	n/a	5	0	14	[0, 0, 0]	n/a	0	1	500	LTCG29	LTCG30	1000.0	200	100	300	FR3	0	R1154D
1584.179	1.6	1596631	WORD	n/a	wordpools/wordpool.txt	DIME	6	0	14	[0, 0, 0]	n/a	0	1	0	n/a	n/a	0.0	0	0	0	FR3	0	R1154D
1585.749	0.0	1598201	STIM_ON	n/a	n/a	DIME	6	0	14	[0, 0, 0]	n/a	1	1	500	LTCG29	LTCG30	1000.0	200	100	300	FR3	0	R1154D
1585.797	0.452	1598249	WORD_OFF	n/a	n/a	DIME	6	0	14	[0, 0, 0]	n/a	1	1	500	LTCG29	LTCG30	1000.0	200	100	300	FR3	0	R1154D
1586.249	0.515	1598701	STIM_OFF	n/a	n/a	n/a	6	0	14	[0, 0, 0]	n/a	0	1	500	LTCG29	LTCG30	1000.0	200	100	300	FR3	0	R1154D
1586.764	1.6	1599216	WORD	n/a	wordpools/wordpool.txt	CUBE	7	0	14	[0, 0, 0]	n/a	0	1	0	n/a	n/a	0.0	0	0	0	FR3	0	R1154D
1588.381	0.782	1600832	WORD_OFF	n/a	n/a	CUBE	7	0	14	[0, 0, 0]	n/a	0	1	0	n/a	n/a	0.0	0	0	0	FR3	0	R1154D
1589.163	1.6	1601614	WORD	n/a	wordpools/wordpool.txt	DRESS	8	0	14	[0, 0, 0]	n/a	0	1	0	n/a	n/a	0.0	0	0	0	FR3	0	R1154D
1590.729	0.0	1603180	STIM_ON	n/a	n/a	DRESS	8	0	14	[0, 0, 0]	n/a	1	1	500	LTCG29	LTCG30	1000.0	200	100	300	FR3	0	R1154D
1590.781	0.448	1603232	WORD_OFF	n/a	n/a	DRESS	8	0	14	[0, 0, 0]	n/a	1	1	500	LTCG29	LTCG30	1000.0	200	100	300	FR3	0	R1154D
1591.229	0.419	1603680	STIM_OFF	n/a	n/a	n/a	8	0	14	[0, 0, 0]	n/a	0	1	500	LTCG29	LTCG30	1000.0	200	100	300	FR3	0	R1154D
1591.648	1.6	1604099	WORD	n/a	wordpools/wordpool.txt	SINK	9	0	14	[0, 0, 0]	n/a	0	1	0	n/a	n/a	0.0	0	0	0	FR3	0	R1154D
1593.213	0.0	1605664	STIM_ON	n/a	n/a	SINK	9	0	14	[0, 0, 0]	n/a	1	1	500	LTCG29	LTCG30	1000.0	200	100	300	FR3	0	R1154D
1593.264	0.449	1605715	WORD_OFF	n/a	n/a	SINK	9	0	14	[0, 0, 0]	n/a	1	1	500	LTCG29	LTCG30	1000.0	200	100	300	FR3	0	R1154D
1593.713	0.384	1606164	STIM_OFF	n/a	n/a	n/a	9	0	14	[0, 0, 0]	n/a	0	1	500	LTCG29	LTCG30	1000.0	200	100	300	FR3	0	R1154D
1594.097	1.6	1606548	WORD	n/a	wordpools/wordpool.txt	TRASH	10	0	14	[0, 0, 0]	n/a	0	1	0	n/a	n/a	0.0	0	0	0	FR3	0	R1154D
1595.673	0.0	1608124	STIM_ON	n/a	n/a	TRASH	10	0	14	[0, 0, 0]	n/a	1	1	500	LTCG29	LTCG30	1000.0	200	100	300	FR3	0	R1154D
1595.715	0.458	1608166	WORD_OFF	n/a	n/a	TRASH	10	0	14	[0, 0, 0]	n/a	1	1	500	LTCG29	LTCG30	1000.0	200	100	300	FR3	0	R1154D
1596.173	0.342	1608624	STIM_OFF	n/a	n/a	n/a	10	0	14	[0, 0, 0]	n/a	0	1	500	LTCG29	LTCG30	1000.0	200	100	300	FR3	0	R1154D
1596.515	1.6	1608966	WORD	n/a	wordpools/wordpool.txt	BATH	11	1	14	[0, 0, 0]	n/a	0	1	0	n/a	n/a	0.0	0	0	0	FR3	0	R1154D
1598.083	0.0	1610534	STIM_ON	n/a	n/a	BATH	11	1	14	[0, 0, 0]	n/a	1	1	500	LTCG29	LTCG30	1000.0	200	100	300	FR3	0	R1154D
1598.131	0.452	1610582	WORD_OFF	n/a	n/a	BATH	11	0	14	[0, 0, 0]	n/a	1	1	500	LTCG29	LTCG30	1000.0	200	100	300	FR3	0	R1154D
1598.583	0.498	1611034	STIM_OFF	n/a	n/a	n/a	11	0	14	[0, 0, 0]	n/a	0	1	500	LTCG29	LTCG30	1000.0	200	100	300	FR3	0	R1154D
1599.081	1.6	1611532	WORD	n/a	wordpools/wordpool.txt	CHEEK	12	1	14	[0, 0, 0]	n/a	0	1	0	n/a	n/a	0.0	0	0	0	FR3	0	R1154D
1600.683	0.0	1613134	WORD_OFF	n/a	n/a	CHEEK	12	0	14	[0, 0, 0]	n/a	0	1	0	n/a	n/a	0.0	0	0	0	FR3	0	R1154D
1600.683	0.0	1613134	DISTRACT_START	n/a	n/a	n/a	-999	0	14	[0, 0, 0]	n/a	0	1	0	n/a	n/a	0.0	0	0	0	FR3	0	R1154D
1600.683	0.017	1613134	START	n/a	n/a	n/a	-999	0	14	[-999, -999, -999]	n/a	0	1	0	n/a	n/a	0.0	0	0	0	FR3	0	R1154D
1600.7	2.449	1613151	PROB	2.411	n/a	n/a	-999	0	14	[1, 3, 6]	10	0	1	0	n/a	n/a	0.0	0	0	0	FR3	0	R1154D
1603.149	2.552	1615600	PROB	2.522	n/a	n/a	-999	0	14	[3, 9, 7]	19	0	1	0	n/a	n/a	0.0	0	0	0	FR3	0	R1154D
1605.701	2.366	1618152	PROB	2.33	n/a	n/a	-999	0	14	[8, 2, 1]	11	0	1	0	n/a	n/a	0.0	0	0	0	FR3	0	R1154D
1608.067	2.551	1620517	PROB	2.524	n/a	n/a	-999	0	14	[5, 2, 7]	14	0	1	0	n/a	n/a	0.0	0	0	0	FR3	0	R1154D
1610.618	2.084	1623068	PROB	2.053	n/a	n/a	-999	0	14	[2, 8, 3]	13	0	1	0	n/a	n/a	0.0	0	0	0	FR3	0	R1154D
1612.702	2.05	1625152	PROB	2.026	n/a	n/a	-999	0	14	[3, 6, 7]	16	0	1	0	n/a	n/a	0.0	0	0	0	FR3	0	R1154D
1614.752	1.516	1627202	PROB	1.487	n/a	n/a	-999	0	14	[1, 1, 1]	3	0	1	0	n/a	n/a	0.0	0	0	0	FR3	0	R1154D
1616.268	2.268	1628718	PROB	2.245	n/a	n/a	-999	0	14	[7, 3, 4]	14	0	1	0	n/a	n/a	0.0	0	0	0	FR3	0	R1154D
1618.536	3.536	1630986	PROB	3.536	n/a	n/a	-999	0	14	[9, 7, 6]	22	0	1	0	n/a	n/a	0.0	0	0	0	FR3	0	R1154D
1622.072	0.014	1634522	STOP	n/a	n/a	n/a	-999	0	14	[-999, -999, -999]	n/a	0	1	0	n/a	n/a	0.0	0	0	0	FR3	0	R1154D
1622.086	0.701	1634536	DISTRACT_END	n/a	n/a	n/a	-999	0	14	[0, 0, 0]	n/a	0	1	0	n/a	n/a	0.0	0	0	0	FR3	0	R1154D
1622.787	0.5	1635237	RETRIEVAL_ORIENT	n/a	n/a	n/a	-999	0	14	[0, 0, 0]	n/a	0	1	0	n/a	n/a	0.0	0	0	0	FR3	0	R1154D
1623.303	0.562	1635753	REC_START	n/a	n/a	n/a	-999	0	14	[0, 0, 0]	n/a	0	1	0	n/a	n/a	0.0	0	0	0	FR3	0	R1154D
1623.865	0.745	1636315	REC_WORD	0.562	n/a	BATH	11	1	14	[0, 0, 0]	n/a	0	1	0	n/a	n/a	0.0	0	0	0	FR3	0	R1154D
1624.61	5.707	1637060	REC_WORD	1.307	n/a	VASE	1	1	14	[0, 0, 0]	n/a	0	1	0	n/a	n/a	0.0	0	0	0	FR3	0	R1154D
1630.317	22.996	1642766	REC_WORD	7.014	n/a	CHEEK	12	1	14	[0, 0, 0]	n/a	0	1	0	n/a	n/a	0.0	0	0	0	FR3	0	R1154D
1653.313	4.946	1665761	REC_END	n/a	n/a	n/a	-999	0	14	[0, 0, 0]	n/a	0	1	0	n/a	n/a	0.0	0	0	0	FR3	0	R1154D
1658.259	0.5	1670707	TRIAL	n/a	n/a	n/a	-999	0	15	[0, 0, 0]	n/a	0	0	0	n/a	n/a	0.0	0	0	0	FR3	0	R1154D
1658.759	10.0	1671207	COUNTDOWN_START	n/a	n/a	n/a	-999	0	15	[0, 0, 0]	n/a	0	0	0	n/a	n/a	0.0	0	0	0	FR3	0	R1154D
1669.187	0.007	1681634	COUNTDOWN_END	n/a	n/a	n/a	-999	0	15	[0, 0, 0]	n/a	0	0	0	n/a	n/a	0.0	0	0	0	FR3	0	R1154D
1669.194	1.6	1681641	ORIENT	n/a	n/a	n/a	-999	0	15	[0, 0, 0]	n/a	0	0	0	n/a	n/a	0.0	0	0	0	FR3	0	R1154D
1670.796	1.967	1683243	ORIENT_OFF	n/a	n/a	n/a	-999	0	15	[0, 0, 0]	n/a	0	0	0	n/a	n/a	0.0	0	0	0	FR3	0	R1154D
1672.763	1.6	1685210	WORD	n/a	wordpools/wordpool.txt	WALL	1	1	15	[0, 0, 0]	n/a	0	0	0	n/a	n/a	0.0	0	0	0	FR3	0	R1154D
1674.38	0.916	1686827	WORD_OFF	n/a	n/a	WALL	1	0	15	[0, 0, 0]	n/a	0	0	0	n/a	n/a	0.0	0	0	0	FR3	0	R1154D
1675.296	1.6	1687743	WORD	n/a	wordpools/wordpool.txt	WORLD	2	1	15	[0, 0, 0]	n/a	0	0	0	n/a	n/a	0.0	0	0	0	FR3	0	R1154D
1676.914	0.816	1689361	WORD_OFF	n/a	n/a	WORLD	2	0	15	[0, 0, 0]	n/a	0	0	0	n/a	n/a	0.0	0	0	0	FR3	0	R1154D
1677.73	1.6	1690177	WORD	n/a	wordpools/wordpool.txt	JUICE	3	0	15	[0, 0, 0]	n/a	0	0	0	n/a	n/a	0.0	0	0	0	FR3	0	R1154D
1679.347	0.816	1691794	WORD_OFF	n/a	n/a	JUICE	3	0	15	[0, 0, 0]	n/a	0	0	0	n/a	n/a	0.0	0	0	0	FR3	0	R1154D
1680.163	1.6	1692610	WORD	n/a	wordpools/wordpool.txt	HOSE	4	0	15	[0, 0, 0]	n/a	0	0	0	n/a	n/a	0.0	0	0	0	FR3	0	R1154D
1681.781	0.934	1694227	WORD_OFF	n/a	n/a	HOSE	4	0	15	[0, 0, 0]	n/a	0	0	0	n/a	n/a	0.0	0	0	0	FR3	0	R1154D
1682.715	1.6	1695161	WORD	n/a	wordpools/wordpool.txt	CAKE	5	0	15	[0, 0, 0]	n/a	0	0	0	n/a	n/a	0.0	0	0	0	FR3	0	R1154D
1684.332	0.849	1696778	WORD_OFF	n/a	n/a	CAKE	5	0	15	[0, 0, 0]	n/a	0	0	0	n/a	n/a	0.0	0	0	0	FR3	0	R1154D
1685.181	1.6	1697627	WORD	n/a	wordpools/wordpool.txt	THUMB	6	0	15	[0, 0, 0]	n/a	0	0	0	n/a	n/a	0.0	0	0	0	FR3	0	R1154D
1686.799	0.85	1699245	WORD_OFF	n/a	n/a	THUMB	6	0	15	[0, 0, 0]	n/a	0	0	0	n/a	n/a	0.0	0	0	0	FR3	0	R1154D
1687.649	1.6	1700095	WORD	n/a	wordpools/wordpool.txt	JAR	7	0	15	[0, 0, 0]	n/a	0	0	0	n/a	n/a	0.0	0	0	0	FR3	0	R1154D
1689.265	1.0	1701711	WORD_OFF	n/a	n/a	JAR	7	0	15	[0, 0, 0]	n/a	0	0	0	n/a	n/a	0.0	0	0	0	FR3	0	R1154D
1690.265	1.6	1702711	WORD	n/a	wordpools/wordpool.txt	CANE	8	0	15	[0, 0, 0]	n/a	0	0	0	n/a	n/a	0.0	0	0	0	FR3	0	R1154D
1691.883	0.833	1704329	WORD_OFF	n/a	n/a	CANE	8	0	15	[0, 0, 0]	n/a	0	0	0	n/a	n/a	0.0	0	0	0	FR3	0	R1154D
1692.716	1.6	1705162	WORD	n/a	wordpools/wordpool.txt	SQUARE	9	0	15	[0, 0, 0]	n/a	0	0	0	n/a	n/a	0.0	0	0	0	FR3	0	R1154D
1694.333	0.916	1706779	WORD_OFF	n/a	n/a	SQUARE	9	0	15	[0, 0, 0]	n/a	0	0	0	n/a	n/a	0.0	0	0	0	FR3	0	R1154D
1695.249	1.6	1707695	WORD	n/a	wordpools/wordpool.txt	CHALK	10	0	15	[0, 0, 0]	n/a	0	0	0	n/a	n/a	0.0	0	0	0	FR3	0	R1154D
1696.867	0.9	1709313	WORD_OFF	n/a	n/a	CHALK	10	0	15	[0, 0, 0]	n/a	0	0	0	n/a	n/a	0.0	0	0	0	FR3	0	R1154D
1697.767	1.6	1710213	WORD	n/a	wordpools/wordpool.txt	PASTE	11	0	15	[0, 0, 0]	n/a	0	0	0	n/a	n/a	0.0	0	0	0	FR3	0	R1154D
1699.384	0.883	1711830	WORD_OFF	n/a	n/a	PASTE	11	0	15	[0, 0, 0]	n/a	0	0	0	n/a	n/a	0.0	0	0	0	FR3	0	R1154D
1700.267	1.6	1712712	WORD	n/a	wordpools/wordpool.txt	INK	12	0	15	[0, 0, 0]	n/a	0	0	0	n/a	n/a	0.0	0	0	0	FR3	0	R1154D
1701.885	0.0	1714330	WORD_OFF	n/a	n/a	INK	12	0	15	[0, 0, 0]	n/a	0	0	0	n/a	n/a	0.0	0	0	0	FR3	0	R1154D
1701.885	0.0	1714330	DISTRACT_START	n/a	n/a	n/a	-999	0	15	[0, 0, 0]	n/a	0	0	0	n/a	n/a	0.0	0	0	0	FR3	0	R1154D
1701.885	0.016	1714330	START	n/a	n/a	n/a	-999	0	15	[-999, -999, -999]	n/a	0	0	0	n/a	n/a	0.0	0	0	0	FR3	0	R1154D
1701.901	2.684	1714346	PROB	2.651	n/a	n/a	-999	0	15	[2, 4, 4]	10	0	0	0	n/a	n/a	0.0	0	0	0	FR3	0	R1154D
1704.585	2.134	1717030	PROB	2.096	n/a	n/a	-999	0	15	[3, 3, 4]	10	0	0	0	n/a	n/a	0.0	0	0	0	FR3	0	R1154D
1706.719	2.234	1719164	PROB	2.202	n/a	n/a	-999	0	15	[8, 8, 2]	18	0	0	0	n/a	n/a	0.0	0	0	0	FR3	0	R1154D
1708.953	2.784	1721398	PROB	2.752	n/a	n/a	-999	0	15	[2, 9, 7]	18	0	0	0	n/a	n/a	0.0	0	0	0	FR3	0	R1154D
1711.737	2.067	1724182	PROB	2.04	n/a	n/a	-999	0	15	[8, 6, 1]	15	0	0	0	n/a	n/a	0.0	0	0	0	FR3	0	R1154D
1713.804	1.466	1726249	PROB	1.434	n/a	n/a	-999	0	15	[7, 3, 1]	11	0	0	0	n/a	n/a	0.0	0	0	0	FR3	0	R1154D
1715.27	2.518	1727715	PROB	2.482	n/a	n/a	-999	0	15	[7, 4, 5]	16	0	0	0	n/a	n/a	0.0	0	0	0	FR3	0	R1154D
1717.788	1.817	1730233	PROB	1.787	n/a	n/a	-999	0	15	[1, 2, 1]	4	0	0	0	n/a	n/a	0.0	0	0	0	FR3	0	R1154D
1719.605	3.746	1732049	PROB	3.746	n/a	n/a	-999	0	15	[9, 5, 9]	23	0	0	0	n/a	n/a	0.0	0	0	0	FR3	0	R1154D
1723.351	0.021	1735795	STOP	n/a	n/a	n/a	-999	0	15	[-999, -999, -999]	n/a	0	0	0	n/a	n/a	0.0	0	0	0	FR3	0	R1154D
1723.372	0.567	1735816	DISTRACT_END	n/a	n/a	n/a	-999	0	15	[0, 0, 0]	n/a	0	0	0	n/a	n/a	0.0	0	0	0	FR3	0	R1154D
1723.939	0.5	1736383	RETRIEVAL_ORIENT	n/a	n/a	n/a	-999	0	15	[0, 0, 0]	n/a	0	0	0	n/a	n/a	0.0	0	0	0	FR3	0	R1154D
1724.456	0.626	1736900	REC_START	n/a	n/a	n/a	-999	0	15	[0, 0, 0]	n/a	0	0	0	n/a	n/a	0.0	0	0	0	FR3	0	R1154D
1725.082	0.616	1737526	REC_WORD	0.626	n/a	WORLD	2	1	15	[0, 0, 0]	n/a	0	0	0	n/a	n/a	0.0	0	0	0	FR3	0	R1154D
1725.698	28.77	1738142	REC_WORD	1.242	n/a	WALL	1	1	15	[0, 0, 0]	n/a	0	0	0	n/a	n/a	0.0	0	0	0	FR3	0	R1154D
1754.468	4.81	1766911	REC_END	n/a	n/a	n/a	-999	0	15	[0, 0, 0]	n/a	0	0	0	n/a	n/a	0.0	0	0	0	FR3	0	R1154D
1759.278	0.5	1771720	TRIAL	n/a	n/a	n/a	-999	0	16	[0, 0, 0]	n/a	0	1	0	n/a	n/a	0.0	0	0	0	FR3	0	R1154D
1759.778	10.0	1772220	COUNTDOWN_START	n/a	n/a	n/a	-999	0	16	[0, 0, 0]	n/a	0	1	0	n/a	n/a	0.0	0	0	0	FR3	0	R1154D
1770.206	0.007	1782648	COUNTDOWN_END	n/a	n/a	n/a	-999	0	16	[0, 0, 0]	n/a	0	1	0	n/a	n/a	0.0	0	0	0	FR3	0	R1154D
1770.213	1.6	1782655	ORIENT	n/a	n/a	n/a	-999	0	16	[0, 0, 0]	n/a	0	1	0	n/a	n/a	0.0	0	0	0	FR3	0	R1154D
1771.831	2.0	1784273	ORIENT_OFF	n/a	n/a	n/a	-999	0	16	[0, 0, 0]	n/a	0	1	0	n/a	n/a	0.0	0	0	0	FR3	0	R1154D
1773.831	1.6	1786273	WORD	n/a	wordpools/wordpool.txt	DRUM	1	1	16	[0, 0, 0]	n/a	0	1	0	n/a	n/a	0.0	0	0	0	FR3	0	R1154D
1775.407	0.0	1787848	STIM_ON	n/a	n/a	DRUM	1	1	16	[0, 0, 0]	n/a	1	1	500	LTCG29	LTCG30	1000.0	200	100	300	FR3	0	R1154D
1775.448	0.459	1787889	WORD_OFF	n/a	n/a	DRUM	1	0	16	[0, 0, 0]	n/a	1	1	500	LTCG29	LTCG30	1000.0	200	100	300	FR3	0	R1154D
1775.907	0.475	1788348	STIM_OFF	n/a	n/a	n/a	1	0	16	[0, 0, 0]	n/a	0	1	500	LTCG29	LTCG30	1000.0	200	100	300	FR3	0	R1154D
1776.382	1.6	1788823	WORD	n/a	wordpools/wordpool.txt	ROSE	2	1	16	[0, 0, 0]	n/a	0	1	0	n/a	n/a	0.0	0	0	0	FR3	0	R1154D
1777.999	0.983	1790440	WORD_OFF	n/a	n/a	ROSE	2	0	16	[0, 0, 0]	n/a	0	1	0	n/a	n/a	0.0	0	0	0	FR3	0	R1154D
1778.982	1.6	1791423	WORD	n/a	wordpools/wordpool.txt	HORN	3	0	16	[0, 0, 0]	n/a	0	1	0	n/a	n/a	0.0	0	0	0	FR3	0	R1154D
1780.559	0.0	1793000	STIM_ON	n/a	n/a	HORN	3	0	16	[0, 0, 0]	n/a	1	1	500	LTCG29	LTCG30	1000.0	200	100	300	FR3	0	R1154D
1780.599	0.46	1793040	WORD_OFF	n/a	n/a	HORN	3	0	16	[0, 0, 0]	n/a	1	1	500	LTCG29	LTCG30	1000.0	200	100	300	FR3	0	R1154D
1781.059	0.34	1793500	STIM_OFF	n/a	n/a	n/a	3	0	16	[0, 0, 0]	n/a	0	1	500	LTCG29	LTCG30	1000.0	200	100	300	FR3	0	R1154D
1781.399	1.6	1793840	WORD	n/a	wordpools/wordpool.txt	WOOD	4	1	16	[0, 0, 0]	n/a	0	1	0	n/a	n/a	0.0	0	0	0	FR3	0	R1154D
1782.98	0.0	1795421	STIM_ON	n/a	n/a	WOOD	4	1	16	[0, 0, 0]	n/a	1	1	500	LTCG29	LTCG30	1000.0	200	100	300	FR3	0	R1154D
1783.015	0.465	1795456	WORD_OFF	n/a	n/a	WOOD	4	0	16	[0, 0, 0]	n/a	1	1	500	LTCG29	LTCG30	1000.0	200	100	300	FR3	0	R1154D
1783.48	0.32	1795921	STIM_OFF	n/a	n/a	n/a	4	0	16	[0, 0, 0]	n/a	0	1	500	LTCG29	LTCG30	1000.0	200	100	300	FR3	0	R1154D
1783.8	1.6	1796241	WORD	n/a	wordpools/wordpool.txt	PRINCE	5	0	16	[0, 0, 0]	n/a	0	1	0	n/a	n/a	0.0	0	0	0	FR3	0	R1154D
1785.417	0.917	1797858	WORD_OFF	n/a	n/a	PRINCE	5	0	16	[0, 0, 0]	n/a	0	1	0	n/a	n/a	0.0	0	0	0	FR3	0	R1154D
1786.334	1.6	1798775	WORD	n/a	wordpools/wordpool.txt	HAWK	6	0	16	[0, 0, 0]	n/a	0	1	0	n/a	n/a	0.0	0	0	0	FR3	0	R1154D
1787.909	0.0	1800350	STIM_ON	n/a	n/a	HAWK	6	0	16	[0, 0, 0]	n/a	1	1	500	LTCG29	LTCG30	1000.0	200	100	300	FR3	0	R1154D
1787.951	0.458	1800392	WORD_OFF	n/a	n/a	HAWK	6	0	16	[0, 0, 0]	n/a	1	1	500	LTCG29	LTCG30	1000.0	200	100	300	FR3	0	R1154D
1788.409	0.492	1800850	STIM_OFF	n/a	n/a	n/a	6	0	16	[0, 0, 0]	n/a	0	1	500	LTCG29	LTCG30	1000.0	200	100	300	FR3	0	R1154D
1788.901	1.6	1801342	WORD	n/a	wordpools/wordpool.txt	KITE	7	1	16	[0, 0, 0]	n/a	0	1	0	n/a	n/a	0.0	0	0	0	FR3	0	R1154D
1790.518	0.983	1802959	WORD_OFF	n/a	n/a	KITE	7	0	16	[0, 0, 0]	n/a	0	1	0	n/a	n/a	0.0	0	0	0	FR3	0	R1154D
1791.501	1.6	1803942	WORD	n/a	wordpools/wordpool.txt	ROOF	8	0	16	[0, 0, 0]	n/a	0	1	0	n/a	n/a	0.0	0	0	0	FR3	0	R1154D
1793.082	0.0	1805522	STIM_ON	n/a	n/a	ROOF	8	0	16	[0, 0, 0]	n/a	1	1	500	LTCG29	LTCG30	1000.0	200	100	300	FR3	0	R1154D
1793.117	0.465	1805557	WORD_OFF	n/a	n/a	ROOF	8	0	16	[0, 0, 0]	n/a	1	1	500	LTCG29	LTCG30	1000.0	200	100	300	FR3	0	R1154D
1793.582	0.485	1806022	STIM_OFF	n/a	n/a	n/a	8	0	16	[0, 0, 0]	n/a	0	1	500	LTCG29	LTCG30	1000.0	200	100	300	FR3	0	R1154D
1794.067	1.6	1806507	WORD	n/a	wordpools/wordpool.txt	CLIFF	9	0	16	[0, 0, 0]	n/a	0	1	0	n/a	n/a	0.0	0	0	0	FR3	0	R1154D
1795.656	0.0	1808096	STIM_ON	n/a	n/a	CLIFF	9	0	16	[0, 0, 0]	n/a	1	1	500	LTCG29	LTCG30	1000.0	200	100	300	FR3	0	R1154D
1795.685	0.471	1808125	WORD_OFF	n/a	n/a	CLIFF	9	0	16	[0, 0, 0]	n/a	1	1	500	LTCG29	LTCG30	1000.0	200	100	300	FR3	0	R1154D
1796.156	0.313	1808596	STIM_OFF	n/a	n/a	n/a	9	0	16	[0, 0, 0]	n/a	0	1	500	LTCG29	LTCG30	1000.0	200	100	300	FR3	0	R1154D
1796.469	1.6	1808909	WORD	n/a	wordpools/wordpool.txt	AXE	10	0	16	[0, 0, 0]	n/a	0	1	0	n/a	n/a	0.0	0	0	0	FR3	0	R1154D
1798.085	0.834	1810525	WORD_OFF	n/a	n/a	AXE	10	0	16	[0, 0, 0]	n/a	0	1	0	n/a	n/a	0.0	0	0	0	FR3	0	R1154D
1798.919	1.6	1811359	WORD	n/a	wordpools/wordpool.txt	CAVE	11	0	16	[0, 0, 0]	n/a	0	1	0	n/a	n/a	0.0	0	0	0	FR3	0	R1154D
1800.504	0.0	1812944	STIM_ON	n/a	n/a	CAVE	11	0	16	[0, 0, 0]	n/a	1	1	500	LTCG29	LTCG30	1000.0	200	100	300	FR3	0	R1154D
1800.536	0.468	1812976	WORD_OFF	n/a	n/a	CAVE	11	0	16	[0, 0, 0]	n/a	1	1	500	LTCG29	LTCG30	1000.0	200	100	300	FR3	0	R1154D
1801.004	0.366	1813444	STIM_OFF	n/a	n/a	n/a	11	0	16	[0, 0, 0]	n/a	0	1	500	LTCG29	LTCG30	1000.0	200	100	300	FR3	0	R1154D
1801.37	1.6	1813810	WORD	n/a	wordpools/wordpool.txt	TAIL	12	0	16	[0, 0, 0]	n/a	0	1	0	n/a	n/a	0.0	0	0	0	FR3	0	R1154D
1802.956	0.0	1815396	STIM_ON	n/a	n/a	TAIL	12	0	16	[0, 0, 0]	n/a	1	1	500	LTCG29	LTCG30	1000.0	200	100	300	FR3	0	R1154D
1802.987	0.0	1815427	WORD_OFF	n/a	n/a	TAIL	12	0	16	[0, 0, 0]	n/a	1	1	500	LTCG29	LTCG30	1000.0	200	100	300	FR3	0	R1154D
