onset	duration	sample	trial_type	response_time	stim_file	item_name	serialpos	recalled	list	test	answer	stimulation	stim_list	stim_duration	anode_label	cathode_label	amplitude	pulse_freq	n_pulses	pulse_width	experiment	session	subject
0.0	0.0	21716	STIM_ON	n/a	n/a	n/a	-999	0	-999	[0, 0, 0]	n/a	1	0	500	LTCG29	LTCG30	250.0	200	100	300	FR3	2	R1154D
0.5	5.631	22216	STIM_OFF	n/a	n/a	n/a	-999	0	-999	[0, 0, 0]	n/a	0	0	500	LTCG29	LTCG30	250.0	200	100	300	FR3	2	R1154D
6.131	0.0	27847	STIM_ON	n/a	n/a	n/a	-999	0	-999	[0, 0, 0]	n/a	1	0	500	LTCG29	LTCG30	500.0	200	100	300	FR3	2	R1154D
6.631	9.869	28347	STIM_OFF	n/a	n/a	n/a	-999	0	-999	[0, 0, 0]	n/a	0	0	500	LTCG29	LTCG30	500.0	200	100	300	FR3	2	R1154D
16.5	0.0	38215	STIM_ON	n/a	n/a	n/a	-999	0	-999	[0, 0, 0]	n/a	1	0	500	LTCG29	LTCG30	750.0	200	100	300	FR3	2	R1154D
17.0	6.686	38715	STIM_OFF	n/a	n/a	n/a	-999	0	-999	[0, 0, 0]	n/a	0	0	500	LTCG29	LTCG30	750.0	200	100	300	FR3	2	R1154D
23.686	0.0	45401	STIM_ON	n/a	n/a	n/a	-999	0	-999	[0, 0, 0]	n/a	1	0	500	LTCG29	LTCG30	1000.0	200	100	300	FR3	2	R1154D
24.186	12.692	45901	STIM_OFF	n/a	n/a	n/a	-999	0	-999	[0, 0, 0]	n/a	0	0	500	LTCG29	LTCG30	1000.0	200	100	300	FR3	2	R1154D
36.878	0.0	58592	STIM_ON	n/a	n/a	n/a	-999	0	-999	[0, 0, 0]	n/a	1	0	500	LTCG29	LTCG30	1000.0	200	100	300	FR3	2	R1154D
37.378	10.684	59092	STIM_OFF	n/a	n/a	n/a	-999	0	-999	[0, 0, 0]	n/a	0	0	500	LTCG29	LTCG30	1000.0	200	100	300	FR3	2	R1154D
48.062	0.0	69775	STIM_ON	n/a	n/a	n/a	-999	0	-999	[0, 0, 0]	n/a	1	0	500	LTCG29	LTCG30	1000.0	200	100	300	FR3	2	R1154D
48.562	8.313	70275	STIM_OFF	n/a	n/a	n/a	-999	0	-999	[0, 0, 0]	n/a	0	0	500	LTCG29	LTCG30	1000.0	200	100	300	FR3	2	R1154D
56.875	0.0	78588	STIM_ON	n/a	n/a	n/a	-999	0	-999	[0, 0, 0]	n/a	1	0	500	LTCG29	LTCG30	1000.0	200	100	300	FR3	2	R1154D
57.375	66.366	79088	STIM_OFF	n/a	n/a	n/a	-999	0	-999	[0, 0, 0]	n/a	0	0	500	LTCG29	LTCG30	1000.0	200	100	300	FR3	2	R1154D
123.741	0.0	145450	INSTRUCT_START	n/a	n/a	n/a	-999	0	-999	[0, 0, 0]	n/a	0	0	0	n/a	n/a	0.0	0	0	0	FR3	2	R1154D
123.741	10.863	145450	INSTRUCT_END	n/a	n/a	n/a	-999	0	-999	[0, 0, 0]	n/a	0	0	0	n/a	n/a	0.0	0	0	0	FR3	2	R1154D
134.604	0.0	156313	MIC_TEST	n/a	n/a	n/a	-999	0	-999	[0, 0, 0]	n/a	0	0	0	n/a	n/a	0.0	0	0	0	FR3	2	R1154D
134.604	11.501	156313	SESS_START	n/a	n/a	n/a	-999	0	-999	[0, 0, 0]	n/a	0	0	0	n/a	n/a	0.0	0	0	0	FR3	2	R1154D
146.105	1.658	167813	PRACTICE_TRIAL	n/a	n/a	n/a	-999	0	-1	[0, 0, 0]	n/a	0	0	0	n/a	n/a	0.0	0	0	0	FR3	2	R1154D
147.763	10.0	169471	COUNTDOWN_START	n/a	n/a	n/a	-999	0	-1	[0, 0, 0]	n/a	0	0	0	n/a	n/a	0.0	0	0	0	FR3	2	R1154D
158.191	0.007	179899	COUNTDOWN_END	n/a	n/a	n/a	-999	0	-1	[0, 0, 0]	n/a	0	0	0	n/a	n/a	0.0	0	0	0	FR3	2	R1154D
158.198	1.6	179906	PRACTICE_ORIENT	n/a	n/a	n/a	-999	0	-1	[0, 0, 0]	n/a	0	0	0	n/a	n/a	0.0	0	0	0	FR3	2	R1154D
159.814	2.268	181521	PRACTICE_ORIENT_OFF	n/a	n/a	n/a	-999	0	-1	[0, 0, 0]	n/a	0	0	0	n/a	n/a	0.0	0	0	0	FR3	2	R1154D
162.082	1.6	183789	PRACTICE_WORD	n/a	n/a	RING	1	0	-1	[0, 0, 0]	n/a	0	0	0	n/a	n/a	0.0	0	0	0	FR3	2	R1154D
163.698	0.834	185405	PRACTICE_WORD_OFF	n/a	n/a	RING	-999	0	-1	[0, 0, 0]	n/a	0	0	0	n/a	n/a	0.0	0	0	0	FR3	2	R1154D
164.532	1.6	186239	PRACTICE_WORD	n/a	n/a	RHINO	2	0	-1	[0, 0, 0]	n/a	0	0	0	n/a	n/a	0.0	0	0	0	FR3	2	R1154D
166.15	0.8	187857	PRACTICE_WORD_OFF	n/a	n/a	RHINO	-999	0	-1	[0, 0, 0]	n/a	0	0	0	n/a	n/a	0.0	0	0	0	FR3	2	R1154D
166.95	1.6	188657	PRACTICE_WORD	n/a	n/a	FLOOD	3	0	-1	[0, 0, 0]	n/a	0	0	0	n/a	n/a	0.0	0	0	0	FR3	2	R1154D
168.566	1.0	190273	PRACTICE_WORD_OFF	n/a	n/a	FLOOD	-999	0	-1	[0, 0, 0]	n/a	0	0	0	n/a	n/a	0.0	0	0	0	FR3	2	R1154D
169.566	1.6	191273	PRACTICE_WORD	n/a	n/a	ATTIC	4	0	-1	[0, 0, 0]	n/a	0	0	0	n/a	n/a	0.0	0	0	0	FR3	2	R1154D
171.184	0.85	192891	PRACTICE_WORD_OFF	n/a	n/a	ATTIC	-999	0	-1	[0, 0, 0]	n/a	0	0	0	n/a	n/a	0.0	0	0	0	FR3	2	R1154D
172.034	1.6	193741	PRACTICE_WORD	n/a	n/a	BEAM	5	0	-1	[0, 0, 0]	n/a	0	0	0	n/a	n/a	0.0	0	0	0	FR3	2	R1154D
173.65	0.984	195357	PRACTICE_WORD_OFF	n/a	n/a	BEAM	-999	0	-1	[0, 0, 0]	n/a	0	0	0	n/a	n/a	0.0	0	0	0	FR3	2	R1154D
174.634	1.6	196341	PRACTICE_WORD	n/a	n/a	IRON	6	0	-1	[0, 0, 0]	n/a	0	0	0	n/a	n/a	0.0	0	0	0	FR3	2	R1154D
176.252	0.766	197959	PRACTICE_WORD_OFF	n/a	n/a	IRON	-999	0	-1	[0, 0, 0]	n/a	0	0	0	n/a	n/a	0.0	0	0	0	FR3	2	R1154D
177.018	1.6	198725	PRACTICE_WORD	n/a	n/a	TONGUE	7	0	-1	[0, 0, 0]	n/a	0	0	0	n/a	n/a	0.0	0	0	0	FR3	2	R1154D
178.634	0.984	200340	PRACTICE_WORD_OFF	n/a	n/a	TONGUE	-999	0	-1	[0, 0, 0]	n/a	0	0	0	n/a	n/a	0.0	0	0	0	FR3	2	R1154D
179.618	1.6	201324	PRACTICE_WORD	n/a	n/a	WAGON	8	0	-1	[0, 0, 0]	n/a	0	0	0	n/a	n/a	0.0	0	0	0	FR3	2	R1154D
181.236	0.917	202942	PRACTICE_WORD_OFF	n/a	n/a	WAGON	-999	0	-1	[0, 0, 0]	n/a	0	0	0	n/a	n/a	0.0	0	0	0	FR3	2	R1154D
182.153	1.6	203859	PRACTICE_WORD	n/a	n/a	CHEST	9	0	-1	[0, 0, 0]	n/a	0	0	0	n/a	n/a	0.0	0	0	0	FR3	2	R1154D
183.769	0.767	205475	PRACTICE_WORD_OFF	n/a	n/a	CHEST	-999	0	-1	[0, 0, 0]	n/a	0	0	0	n/a	n/a	0.0	0	0	0	FR3	2	R1154D
184.536	1.6	206242	PRACTICE_WORD	n/a	n/a	WATCH	10	0	-1	[0, 0, 0]	n/a	0	0	0	n/a	n/a	0.0	0	0	0	FR3	2	R1154D
186.154	0.783	207860	PRACTICE_WORD_OFF	n/a	n/a	WATCH	-999	0	-1	[0, 0, 0]	n/a	0	0	0	n/a	n/a	0.0	0	0	0	FR3	2	R1154D
186.937	1.6	208643	PRACTICE_WORD	n/a	n/a	COTTON	11	0	-1	[0, 0, 0]	n/a	0	0	0	n/a	n/a	0.0	0	0	0	FR3	2	R1154D
188.553	0.767	210259	PRACTICE_WORD_OFF	n/a	n/a	COTTON	-999	0	-1	[0, 0, 0]	n/a	0	0	0	n/a	n/a	0.0	0	0	0	FR3	2	R1154D
189.32	1.6	211026	PRACTICE_WORD	n/a	n/a	CAMEL	12	0	-1	[0, 0, 0]	n/a	0	0	0	n/a	n/a	0.0	0	0	0	FR3	2	R1154D
190.938	0.0	212644	PRACTICE_WORD_OFF	n/a	n/a	CAMEL	-999	0	-1	[0, 0, 0]	n/a	0	0	0	n/a	n/a	0.0	0	0	0	FR3	2	R1154D
190.938	0.0	212644	DISTRACT_START	n/a	n/a	n/a	-999	0	-1	[0, 0, 0]	n/a	0	0	0	n/a	n/a	0.0	0	0	0	FR3	2	R1154D
190.938	0.016	212644	START	n/a	n/a	n/a	-999	0	-1	[-999, -999, -999]	n/a	0	0	0	n/a	n/a	0.0	0	0	0	FR3	2	R1154D
190.954	5.235	212660	PROB	5.205	n/a	n/a	-999	0	-1	[6, 9, 7]	23	0	0	0	n/a	n/a	0.0	0	0	0	FR3	2	R1154D
196.189	3.917	217895	PROB	3.882	n/a	n/a	-999	0	-1	[9, 7, 9]	25	0	0	0	n/a	n/a	0.0	0	0	0	FR3	2	R1154D
200.106	2.134	221811	PROB	2.108	n/a	n/a	-999	0	-1	[7, 5, 3]	15	0	0	0	n/a	n/a	0.0	0	0	0	FR3	2	R1154D
202.24	1.967	223945	PROB	1.934	n/a	n/a	-999	0	-1	[2, 8, 1]	11	0	0	0	n/a	n/a	0.0	0	0	0	FR3	2	R1154D
204.207	1.65	225912	PROB	1.623	n/a	n/a	-999	0	-1	[1, 5, 7]	13	0	0	0	n/a	n/a	0.0	0	0	0	FR3	2	R1154D
205.857	1.533	227562	PROB	1.501	n/a	n/a	-999	0	-1	[5, 7, 3]	15	0	0	0	n/a	n/a	0.0	0	0	0	FR3	2	R1154D
207.39	1.751	229095	PROB	1.72	n/a	n/a	-999	0	-1	[7, 1, 6]	14	0	0	0	n/a	n/a	0.0	0	0	0	FR3	2	R1154D
209.141	1.906	230846	PROB	1.906	n/a	n/a	-999	0	-1	[2, 7, 7]	16	0	0	0	n/a	n/a	0.0	0	0	0	FR3	2	R1154D
211.047	0.011	232752	STOP	n/a	n/a	n/a	-999	0	-1	[-999, -999, -999]	n/a	0	0	0	n/a	n/a	0.0	0	0	0	FR3	2	R1154D
211.058	0.699	232763	DISTRACT_END	n/a	n/a	n/a	-999	0	-1	[0, 0, 0]	n/a	0	0	0	n/a	n/a	0.0	0	0	0	FR3	2	R1154D
211.757	0.5	233462	RETRIEVAL_ORIENT	n/a	n/a	n/a	-999	0	-1	[0, 0, 0]	n/a	0	0	0	n/a	n/a	0.0	0	0	0	FR3	2	R1154D
212.279	30.008	233984	PRACTICE_REC_START	n/a	n/a	n/a	-999	0	-1	[0, 0, 0]	n/a	0	0	0	n/a	n/a	0.0	0	0	0	FR3	2	R1154D
242.287	415.285	263990	PRACTICE_REC_END	n/a	n/a	n/a	-999	0	-1	[0, 0, 0]	n/a	0	0	0	n/a	n/a	0.0	0	0	0	FR3	2	R1154D
657.572	0.5	679253	TRIAL	n/a	n/a	n/a	-999	0	1	[0, 0, 0]	n/a	0	0	0	n/a	n/a	0.0	0	0	0	FR3	2	R1154D
658.072	10.0	679753	COUNTDOWN_START	n/a	n/a	n/a	-999	0	1	[0, 0, 0]	n/a	0	0	0	n/a	n/a	0.0	0	0	0	FR3	2	R1154D
668.5	0.007	690180	COUNTDOWN_END	n/a	n/a	n/a	-999	0	1	[0, 0, 0]	n/a	0	0	0	n/a	n/a	0.0	0	0	0	FR3	2	R1154D
668.507	1.6	690187	ORIENT	n/a	n/a	n/a	-999	0	1	[0, 0, 0]	n/a	0	0	0	n/a	n/a	0.0	0	0	0	FR3	2	R1154D
670.125	2.017	691805	ORIENT_OFF	n/a	n/a	n/a	-999	0	1	[0, 0, 0]	n/a	0	0	0	n/a	n/a	0.0	0	0	0	FR3	2	R1154D
672.142	1.6	693822	WORD	n/a	wordpools/wordpool.txt	FOAM	1	1	1	[0, 0, 0]	n/a	0	0	0	n/a	n/a	0.0	0	0	0	FR3	2	R1154D
673.758	0.767	695438	WORD_OFF	n/a	n/a	FOAM	1	0	1	[0, 0, 0]	n/a	0	0	0	n/a	n/a	0.0	0	0	0	FR3	2	R1154D
674.525	1.6	696205	WORD	n/a	wordpools/wordpool.txt	BOX	2	1	1	[0, 0, 0]	n/a	0	0	0	n/a	n/a	0.0	0	0	0	FR3	2	R1154D
676.143	1.0	697823	WORD_OFF	n/a	n/a	BOX	2	0	1	[0, 0, 0]	n/a	0	0	0	n/a	n/a	0.0	0	0	0	FR3	2	R1154D
677.143	1.6	698823	WORD	n/a	wordpools/wordpool.txt	BAG	3	0	1	[0, 0, 0]	n/a	0	0	0	n/a	n/a	0.0	0	0	0	FR3	2	R1154D
678.759	0.85	700439	WORD_OFF	n/a	n/a	BAG	3	0	1	[0, 0, 0]	n/a	0	0	0	n/a	n/a	0.0	0	0	0	FR3	2	R1154D
679.609	1.6	701289	WORD	n/a	wordpools/wordpool.txt	PIT	4	0	1	[0, 0, 0]	n/a	0	0	0	n/a	n/a	0.0	0	0	0	FR3	2	R1154D
681.21	0.767	702889	WORD_OFF	n/a	n/a	PIT	4	0	1	[0, 0, 0]	n/a	0	0	0	n/a	n/a	0.0	0	0	0	FR3	2	R1154D
681.977	1.6	703656	WORD	n/a	wordpools/wordpool.txt	FENCE	5	0	1	[0, 0, 0]	n/a	0	0	0	n/a	n/a	0.0	0	0	0	FR3	2	R1154D
683.593	0.984	705272	WORD_OFF	n/a	n/a	FENCE	5	0	1	[0, 0, 0]	n/a	0	0	0	n/a	n/a	0.0	0	0	0	FR3	2	R1154D
684.577	1.6	706256	WORD	n/a	wordpools/wordpool.txt	DITCH	6	1	1	[0, 0, 0]	n/a	0	0	0	n/a	n/a	0.0	0	0	0	FR3	2	R1154D
686.195	0.933	707874	WORD_OFF	n/a	n/a	DITCH	6	0	1	[0, 0, 0]	n/a	0	0	0	n/a	n/a	0.0	0	0	0	FR3	2	R1154D
687.128	1.6	708807	WORD	n/a	wordpools/wordpool.txt	ARK	7	0	1	[0, 0, 0]	n/a	0	0	0	n/a	n/a	0.0	0	0	0	FR3	2	R1154D
688.744	0.984	710423	WORD_OFF	n/a	n/a	ARK	7	0	1	[0, 0, 0]	n/a	0	0	0	n/a	n/a	0.0	0	0	0	FR3	2	R1154D
689.728	1.6	711407	WORD	n/a	wordpools/wordpool.txt	YARD	8	1	1	[0, 0, 0]	n/a	0	0	0	n/a	n/a	0.0	0	0	0	FR3	2	R1154D
691.345	0.934	713024	WORD_OFF	n/a	n/a	YARD	8	0	1	[0, 0, 0]	n/a	0	0	0	n/a	n/a	0.0	0	0	0	FR3	2	R1154D
692.279	1.6	713958	WORD	n/a	wordpools/wordpool.txt	SKUNK	9	1	1	[0, 0, 0]	n/a	0	0	0	n/a	n/a	0.0	0	0	0	FR3	2	R1154D
693.896	0.849	715575	WORD_OFF	n/a	n/a	SKUNK	9	0	1	[0, 0, 0]	n/a	0	0	0	n/a	n/a	0.0	0	0	0	FR3	2	R1154D
694.745	1.6	716424	WORD	n/a	wordpools/wordpool.txt	LAMB	10	0	1	[0, 0, 0]	n/a	0	0	0	n/a	n/a	0.0	0	0	0	FR3	2	R1154D
696.362	0.918	718041	WORD_OFF	n/a	n/a	LAMB	10	0	1	[0, 0, 0]	n/a	0	0	0	n/a	n/a	0.0	0	0	0	FR3	2	R1154D
697.28	1.6	718959	WORD	n/a	wordpools/wordpool.txt	HOSE	11	0	1	[0, 0, 0]	n/a	0	0	0	n/a	n/a	0.0	0	0	0	FR3	2	R1154D
698.897	0.899	720576	WORD_OFF	n/a	n/a	HOSE	11	0	1	[0, 0, 0]	n/a	0	0	0	n/a	n/a	0.0	0	0	0	FR3	2	R1154D
699.796	1.6	721474	WORD	n/a	wordpools/wordpool.txt	MILK	12	0	1	[0, 0, 0]	n/a	0	0	0	n/a	n/a	0.0	0	0	0	FR3	2	R1154D
701.413	0.0	723091	DISTRACT_START	n/a	n/a	n/a	-999	0	1	[0, 0, 0]	n/a	0	0	0	n/a	n/a	0.0	0	0	0	FR3	2	R1154D
701.413	0.001	723091	WORD_OFF	n/a	n/a	MILK	12	0	1	[0, 0, 0]	n/a	0	0	0	n/a	n/a	0.0	0	0	0	FR3	2	R1154D
701.414	0.016	723092	START	n/a	n/a	n/a	-999	0	1	[-999, -999, -999]	n/a	0	0	0	n/a	n/a	0.0	0	0	0	FR3	2	R1154D
701.43	2.233	723108	PROB	2.199	n/a	n/a	-999	0	1	[2, 2, 9]	13	0	0	0	n/a	n/a	0.0	0	0	0	FR3	2	R1154D
703.663	1.618	725341	PROB	1.583	n/a	n/a	-999	0	1	[5, 3, 7]	15	0	0	0	n/a	n/a	0.0	0	0	0	FR3	2	R1154D
705.281	2.618	726959	PROB	2.581	n/a	n/a	-999	0	1	[1, 4, 8]	14	0	0	0	n/a	n/a	0.0	0	0	0	FR3	2	R1154D
707.899	2.782	729577	PROB	2.755	n/a	n/a	-999	0	1	[9, 3, 6]	18	0	0	0	n/a	n/a	0.0	0	0	0	FR3	2	R1154D
710.681	2.152	732359	PROB	2.125	n/a	n/a	-999	0	1	[5, 4, 7]	16	0	0	0	n/a	n/a	0.0	0	0	0	FR3	2	R1154D
712.833	1.932	734511	PROB	1.908	n/a	n/a	-999	0	1	[9, 9, 9]	27	0	0	0	n/a	n/a	0.0	0	0	0	FR3	2	R1154D
714.765	1.984	736443	PROB	1.96	n/a	n/a	-999	0	1	[2, 2, 6]	10	0	0	0	n/a	n/a	0.0	0	0	0	FR3	2	R1154D
716.749	2.452	738427	PROB	2.417	n/a	n/a	-999	0	1	[9, 2, 9]	20	0	0	0	n/a	n/a	0.0	0	0	0	FR3	2	R1154D
719.201	3.117	740878	PROB	3.117	n/a	n/a	-999	0	1	[4, 8, 4]	16	0	0	0	n/a	n/a	0.0	0	0	0	FR3	2	R1154D
722.318	0.015	743995	STOP	n/a	n/a	n/a	-999	0	1	[-999, -999, -999]	n/a	0	0	0	n/a	n/a	0.0	0	0	0	FR3	2	R1154D
722.333	0.618	744010	DISTRACT_END	n/a	n/a	n/a	-999	0	1	[0, 0, 0]	n/a	0	0	0	n/a	n/a	0.0	0	0	0	FR3	2	R1154D
722.951	0.5	744628	RETRIEVAL_ORIENT	n/a	n/a	n/a	-999	0	1	[0, 0, 0]	n/a	0	0	0	n/a	n/a	0.0	0	0	0	FR3	2	R1154D
723.468	0.624	745145	REC_START	n/a	n/a	n/a	-999	0	1	[0, 0, 0]	n/a	0	0	0	n/a	n/a	0.0	0	0	0	FR3	2	R1154D
724.092	0.778	745769	REC_WORD	0.624	n/a	FOAM	1	1	1	[0, 0, 0]	n/a	0	0	0	n/a	n/a	0.0	0	0	0	FR3	2	R1154D
724.87	2.586	746547	REC_WORD	1.402	n/a	BOX	2	1	1	[0, 0, 0]	n/a	0	0	0	n/a	n/a	0.0	0	0	0	FR3	2	R1154D
727.456	2.486	749133	REC_WORD	3.988	n/a	YARD	8	1	1	[0, 0, 0]	n/a	0	0	0	n/a	n/a	0.0	0	0	0	FR3	2	R1154D
729.942	0.986	751619	REC_WORD	6.474	n/a	DITCH	6	1	1	[0, 0, 0]	n/a	0	0	0	n/a	n/a	0.0	0	0	0	FR3	2	R1154D
730.928	5.567	752605	REC_WORD	7.46	n/a	SKUNK	9	1	1	[0, 0, 0]	n/a	0	0	0	n/a	n/a	0.0	0	0	0	FR3	2	R1154D
736.495	0.495	758172	REC_WORD	13.027	n/a	YARD	8	1	1	[0, 0, 0]	n/a	0	0	0	n/a	n/a	0.0	0	0	0	FR3	2	R1154D
736.99	4.911	758666	REC_WORD	13.522	n/a	SKUNK	9	1	1	[0, 0, 0]	n/a	0	0	0	n/a	n/a	0.0	0	0	0	FR3	2	R1154D
741.901	1.0	763577	REC_WORD_VV	18.433	n/a	<>	-999	0	1	[0, 0, 0]	n/a	0	0	0	n/a	n/a	0.0	0	0	0	FR3	2	R1154D
742.901	1.0	764577	REC_WORD_VV	19.433	n/a	<>	-999	0	1	[0, 0, 0]	n/a	0	0	0	n/a	n/a	0.0	0	0	0	FR3	2	R1154D
743.901	5.291	765577	REC_WORD_VV	20.433	n/a	<>	-999	0	1	[0, 0, 0]	n/a	0	0	0	n/a	n/a	0.0	0	0	0	FR3	2	R1154D
749.192	1.0	770868	REC_WORD_VV	25.724	n/a	<>	-999	0	1	[0, 0, 0]	n/a	0	0	0	n/a	n/a	0.0	0	0	0	FR3	2	R1154D
750.192	3.287	771868	REC_WORD_VV	26.724	n/a	<>	-999	0	1	[0, 0, 0]	n/a	0	0	0	n/a	n/a	0.0	0	0	0	FR3	2	R1154D
753.479	4.828	775155	REC_END	n/a	n/a	n/a	-999	0	1	[0, 0, 0]	n/a	0	0	0	n/a	n/a	0.0	0	0	0	FR3	2	R1154D
758.307	0.5	779982	TRIAL	n/a	n/a	n/a	-999	0	2	[0, 0, 0]	n/a	0	0	0	n/a	n/a	0.0	0	0	0	FR3	2	R1154D
758.807	10.0	780482	COUNTDOWN_START	n/a	n/a	n/a	-999	0	2	[0, 0, 0]	n/a	0	0	0	n/a	n/a	0.0	0	0	0	FR3	2	R1154D
769.235	0.008	790910	COUNTDOWN_END	n/a	n/a	n/a	-999	0	2	[0, 0, 0]	n/a	0	0	0	n/a	n/a	0.0	0	0	0	FR3	2	R1154D
769.243	1.6	790918	ORIENT	n/a	n/a	n/a	-999	0	2	[0, 0, 0]	n/a	0	0	0	n/a	n/a	0.0	0	0	0	FR3	2	R1154D
770.86	1.984	792535	ORIENT_OFF	n/a	n/a	n/a	-999	0	2	[0, 0, 0]	n/a	0	0	0	n/a	n/a	0.0	0	0	0	FR3	2	R1154D
772.844	1.6	794519	WORD	n/a	wordpools/wordpool.txt	STEAK	1	0	2	[0, 0, 0]	n/a	0	0	0	n/a	n/a	0.0	0	0	0	FR3	2	R1154D
774.46	0.867	796134	WORD_OFF	n/a	n/a	STEAK	1	0	2	[0, 0, 0]	n/a	0	0	0	n/a	n/a	0.0	0	0	0	FR3	2	R1154D
775.327	1.6	797001	WORD	n/a	wordpools/wordpool.txt	WAND	2	0	2	[0, 0, 0]	n/a	0	0	0	n/a	n/a	0.0	0	0	0	FR3	2	R1154D
776.944	0.8	798618	WORD_OFF	n/a	n/a	WAND	2	0	2	[0, 0, 0]	n/a	0	0	0	n/a	n/a	0.0	0	0	0	FR3	2	R1154D
777.744	1.6	799418	WORD	n/a	wordpools/wordpool.txt	STOOL	3	0	2	[0, 0, 0]	n/a	0	0	0	n/a	n/a	0.0	0	0	0	FR3	2	R1154D
779.361	0.817	801035	WORD_OFF	n/a	n/a	STOOL	3	0	2	[0, 0, 0]	n/a	0	0	0	n/a	n/a	0.0	0	0	0	FR3	2	R1154D
780.178	1.6	801852	WORD	n/a	wordpools/wordpool.txt	FACE	4	0	2	[0, 0, 0]	n/a	0	0	0	n/a	n/a	0.0	0	0	0	FR3	2	R1154D
781.794	0.767	803468	WORD_OFF	n/a	n/a	FACE	4	0	2	[0, 0, 0]	n/a	0	0	0	n/a	n/a	0.0	0	0	0	FR3	2	R1154D
782.561	1.6	804235	WORD	n/a	wordpools/wordpool.txt	BLOOM	5	0	2	[0, 0, 0]	n/a	0	0	0	n/a	n/a	0.0	0	0	0	FR3	2	R1154D
784.162	0.934	805836	WORD_OFF	n/a	n/a	BLOOM	5	0	2	[0, 0, 0]	n/a	0	0	0	n/a	n/a	0.0	0	0	0	FR3	2	R1154D
785.096	1.6	806770	WORD	n/a	wordpools/wordpool.txt	TOAD	6	0	2	[0, 0, 0]	n/a	0	0	0	n/a	n/a	0.0	0	0	0	FR3	2	R1154D
786.712	0.967	808386	WORD_OFF	n/a	n/a	TOAD	6	0	2	[0, 0, 0]	n/a	0	0	0	n/a	n/a	0.0	0	0	0	FR3	2	R1154D
787.679	1.6	809353	WORD	n/a	wordpools/wordpool.txt	SHIELD	7	1	2	[0, 0, 0]	n/a	0	0	0	n/a	n/a	0.0	0	0	0	FR3	2	R1154D
789.28	0.984	810954	WORD_OFF	n/a	n/a	SHIELD	7	0	2	[0, 0, 0]	n/a	0	0	0	n/a	n/a	0.0	0	0	0	FR3	2	R1154D
790.264	1.6	811938	WORD	n/a	wordpools/wordpool.txt	BENCH	8	0	2	[0, 0, 0]	n/a	0	0	0	n/a	n/a	0.0	0	0	0	FR3	2	R1154D
791.881	1.0	813555	WORD_OFF	n/a	n/a	BENCH	8	0	2	[0, 0, 0]	n/a	0	0	0	n/a	n/a	0.0	0	0	0	FR3	2	R1154D
792.881	1.6	814554	WORD	n/a	wordpools/wordpool.txt	ROPE	9	0	2	[0, 0, 0]	n/a	0	0	0	n/a	n/a	0.0	0	0	0	FR3	2	R1154D
794.497	0.967	816170	WORD_OFF	n/a	n/a	ROPE	9	0	2	[0, 0, 0]	n/a	0	0	0	n/a	n/a	0.0	0	0	0	FR3	2	R1154D
795.464	1.6	817137	WORD	n/a	wordpools/wordpool.txt	ARM	10	0	2	[0, 0, 0]	n/a	0	0	0	n/a	n/a	0.0	0	0	0	FR3	2	R1154D
797.082	0.85	818755	WORD_OFF	n/a	n/a	ARM	10	0	2	[0, 0, 0]	n/a	0	0	0	n/a	n/a	0.0	0	0	0	FR3	2	R1154D
797.932	1.6	819605	WORD	n/a	wordpools/wordpool.txt	MUD	11	0	2	[0, 0, 0]	n/a	0	0	0	n/a	n/a	0.0	0	0	0	FR3	2	R1154D
799.548	0.783	821221	WORD_OFF	n/a	n/a	MUD	11	0	2	[0, 0, 0]	n/a	0	0	0	n/a	n/a	0.0	0	0	0	FR3	2	R1154D
800.331	1.6	822004	WORD	n/a	wordpools/wordpool.txt	CAGE	12	1	2	[0, 0, 0]	n/a	0	0	0	n/a	n/a	0.0	0	0	0	FR3	2	R1154D
801.949	0.0	823622	DISTRACT_START	n/a	n/a	n/a	-999	0	2	[0, 0, 0]	n/a	0	0	0	n/a	n/a	0.0	0	0	0	FR3	2	R1154D
801.949	0.001	823622	WORD_OFF	n/a	n/a	CAGE	12	0	2	[0, 0, 0]	n/a	0	0	0	n/a	n/a	0.0	0	0	0	FR3	2	R1154D
801.95	0.016	823623	START	n/a	n/a	n/a	-999	0	2	[-999, -999, -999]	n/a	0	0	0	n/a	n/a	0.0	0	0	0	FR3	2	R1154D
801.966	2.432	823639	PROB	2.408	n/a	n/a	-999	0	2	[4, 7, 3]	14	0	0	0	n/a	n/a	0.0	0	0	0	FR3	2	R1154D
804.398	1.485	826071	PROB	1.457	n/a	n/a	-999	0	2	[5, 5, 7]	17	0	0	0	n/a	n/a	0.0	0	0	0	FR3	2	R1154D
805.883	1.499	827556	PROB	1.468	n/a	n/a	-999	0	2	[9, 2, 4]	15	0	0	0	n/a	n/a	0.0	0	0	0	FR3	2	R1154D
807.382	2.569	829055	PROB	2.537	n/a	n/a	-999	0	2	[9, 2, 4]	15	0	0	0	n/a	n/a	0.0	0	0	0	FR3	2	R1154D
809.951	1.95	831624	PROB	1.926	n/a	n/a	-999	0	2	[6, 2, 9]	15	0	0	0	n/a	n/a	0.0	0	0	0	FR3	2	R1154D
811.901	1.632	833573	PROB	1.608	n/a	n/a	-999	0	2	[8, 2, 4]	14	0	0	0	n/a	n/a	0.0	0	0	0	FR3	2	R1154D
813.533	2.518	835205	PROB	2.49	n/a	n/a	-999	0	2	[5, 6, 5]	16	0	0	0	n/a	n/a	0.0	0	0	0	FR3	2	R1154D
816.051	1.683	837723	PROB	1.65	n/a	n/a	-999	0	2	[8, 5, 1]	14	0	0	0	n/a	n/a	0.0	0	0	0	FR3	2	R1154D
817.734	2.934	839406	PROB	2.896	n/a	n/a	-999	0	2	[2, 1, 4]	7	0	0	0	n/a	n/a	0.0	0	0	0	FR3	2	R1154D
820.668	1.428	842340	PROB	1.428	n/a	n/a	-999	0	2	[3, 7, 3]	13	0	0	0	n/a	n/a	0.0	0	0	0	FR3	2	R1154D
822.096	0.007	843768	STOP	n/a	n/a	n/a	-999	0	2	[-999, -999, -999]	n/a	0	0	0	n/a	n/a	0.0	0	0	0	FR3	2	R1154D
822.103	0.682	843775	DISTRACT_END	n/a	n/a	n/a	-999	0	2	[0, 0, 0]	n/a	0	0	0	n/a	n/a	0.0	0	0	0	FR3	2	R1154D
822.785	0.5	844457	RETRIEVAL_ORIENT	n/a	n/a	n/a	-999	0	2	[0, 0, 0]	n/a	0	0	0	n/a	n/a	0.0	0	0	0	FR3	2	R1154D
823.303	0.629	844975	REC_START	n/a	n/a	n/a	-999	0	2	[0, 0, 0]	n/a	0	0	0	n/a	n/a	0.0	0	0	0	FR3	2	R1154D
823.932	1.272	845604	REC_WORD	0.629	n/a	SNAKE	-999	0	2	[0, 0, 0]	n/a	0	0	0	n/a	n/a	0.0	0	0	0	FR3	2	R1154D
825.204	8.603	846876	REC_WORD	1.901	n/a	CAGE	12	1	2	[0, 0, 0]	n/a	0	0	0	n/a	n/a	0.0	0	0	0	FR3	2	R1154D
833.807	1.238	855478	REC_WORD_VV	10.504	n/a	<>	-999	0	2	[0, 0, 0]	n/a	0	0	0	n/a	n/a	0.0	0	0	0	FR3	2	R1154D
835.045	0.591	856716	REC_WORD	11.742	n/a	SNAKE	-999	0	2	[0, 0, 0]	n/a	0	0	0	n/a	n/a	0.0	0	0	0	FR3	2	R1154D
835.636	4.7	857307	REC_WORD	12.333	n/a	CAGE	12	1	2	[0, 0, 0]	n/a	0	0	0	n/a	n/a	0.0	0	0	0	FR3	2	R1154D
840.336	0.318	862007	REC_WORD_VV	17.033	n/a	<>	-999	0	2	[0, 0, 0]	n/a	0	0	0	n/a	n/a	0.0	0	0	0	FR3	2	R1154D
840.654	5.536	862325	REC_WORD	17.351	n/a	FOAM	-999	0	2	[0, 0, 0]	n/a	0	0	0	n/a	n/a	0.0	0	0	0	FR3	2	R1154D
846.19	0.149	867861	REC_WORD_VV	22.887	n/a	<>	-999	0	2	[0, 0, 0]	n/a	0	0	0	n/a	n/a	0.0	0	0	0	FR3	2	R1154D
846.339	6.972	868010	REC_WORD	23.036	n/a	SHIELD	7	1	2	[0, 0, 0]	n/a	0	0	0	n/a	n/a	0.0	0	0	0	FR3	2	R1154D
853.311	4.331	874981	REC_END	n/a	n/a	n/a	-999	0	2	[0, 0, 0]	n/a	0	0	0	n/a	n/a	0.0	0	0	0	FR3	2	R1154D
857.642	0.5	879312	TRIAL	n/a	n/a	n/a	-999	0	3	[0, 0, 0]	n/a	0	0	0	n/a	n/a	0.0	0	0	0	FR3	2	R1154D
858.142	10.0	879812	COUNTDOWN_START	n/a	n/a	n/a	-999	0	3	[0, 0, 0]	n/a	0	0	0	n/a	n/a	0.0	0	0	0	FR3	2	R1154D
868.57	0.007	890239	COUNTDOWN_END	n/a	n/a	n/a	-999	0	3	[0, 0, 0]	n/a	0	0	0	n/a	n/a	0.0	0	0	0	FR3	2	R1154D
868.577	1.6	890246	ORIENT	n/a	n/a	n/a	-999	0	3	[0, 0, 0]	n/a	0	0	0	n/a	n/a	0.0	0	0	0	FR3	2	R1154D
870.195	2.183	891864	ORIENT_OFF	n/a	n/a	n/a	-999	0	3	[0, 0, 0]	n/a	0	0	0	n/a	n/a	0.0	0	0	0	FR3	2	R1154D
872.378	1.6	894047	WORD	n/a	wordpools/wordpool.txt	CANE	1	1	3	[0, 0, 0]	n/a	0	0	0	n/a	n/a	0.0	0	0	0	FR3	2	R1154D
873.996	0.966	895665	WORD_OFF	n/a	n/a	CANE	1	0	3	[0, 0, 0]	n/a	0	0	0	n/a	n/a	0.0	0	0	0	FR3	2	R1154D
874.962	1.6	896631	WORD	n/a	wordpools/wordpool.txt	VASE	2	1	3	[0, 0, 0]	n/a	0	0	0	n/a	n/a	0.0	0	0	0	FR3	2	R1154D
876.578	0.817	898247	WORD_OFF	n/a	n/a	VASE	2	0	3	[0, 0, 0]	n/a	0	0	0	n/a	n/a	0.0	0	0	0	FR3	2	R1154D
877.395	1.6	899064	WORD	n/a	wordpools/wordpool.txt	BATH	3	1	3	[0, 0, 0]	n/a	0	0	0	n/a	n/a	0.0	0	0	0	FR3	2	R1154D
879.013	0.9	900682	WORD_OFF	n/a	n/a	BATH	3	0	3	[0, 0, 0]	n/a	0	0	0	n/a	n/a	0.0	0	0	0	FR3	2	R1154D
879.913	1.6	901582	WORD	n/a	wordpools/wordpool.txt	FORK	4	0	3	[0, 0, 0]	n/a	0	0	0	n/a	n/a	0.0	0	0	0	FR3	2	R1154D
881.529	0.9	903198	WORD_OFF	n/a	n/a	FORK	4	0	3	[0, 0, 0]	n/a	0	0	0	n/a	n/a	0.0	0	0	0	FR3	2	R1154D
882.429	1.6	904098	WORD	n/a	wordpools/wordpool.txt	SHOE	5	1	3	[0, 0, 0]	n/a	0	0	0	n/a	n/a	0.0	0	0	0	FR3	2	R1154D
884.047	0.85	905716	WORD_OFF	n/a	n/a	SHOE	5	0	3	[0, 0, 0]	n/a	0	0	0	n/a	n/a	0.0	0	0	0	FR3	2	R1154D
884.897	1.6	906566	WORD	n/a	wordpools/wordpool.txt	TOE	6	0	3	[0, 0, 0]	n/a	0	0	0	n/a	n/a	0.0	0	0	0	FR3	2	R1154D
886.514	0.833	908182	WORD_OFF	n/a	n/a	TOE	6	0	3	[0, 0, 0]	n/a	0	0	0	n/a	n/a	0.0	0	0	0	FR3	2	R1154D
887.347	1.6	909015	WORD	n/a	wordpools/wordpool.txt	GUARD	7	0	3	[0, 0, 0]	n/a	0	0	0	n/a	n/a	0.0	0	0	0	FR3	2	R1154D
888.965	0.867	910633	WORD_OFF	n/a	n/a	GUARD	7	0	3	[0, 0, 0]	n/a	0	0	0	n/a	n/a	0.0	0	0	0	FR3	2	R1154D
889.832	1.6	911500	WORD	n/a	wordpools/wordpool.txt	FUR	8	1	3	[0, 0, 0]	n/a	0	0	0	n/a	n/a	0.0	0	0	0	FR3	2	R1154D
891.448	0.801	913116	WORD_OFF	n/a	n/a	FUR	8	0	3	[0, 0, 0]	n/a	0	0	0	n/a	n/a	0.0	0	0	0	FR3	2	R1154D
892.249	1.6	913917	WORD	n/a	wordpools/wordpool.txt	TEA	9	0	3	[0, 0, 0]	n/a	0	0	0	n/a	n/a	0.0	0	0	0	FR3	2	R1154D
893.866	0.849	915534	WORD_OFF	n/a	n/a	TEA	9	0	3	[0, 0, 0]	n/a	0	0	0	n/a	n/a	0.0	0	0	0	FR3	2	R1154D
894.715	1.6	916383	WORD	n/a	wordpools/wordpool.txt	MOUSE	10	1	3	[0, 0, 0]	n/a	0	0	0	n/a	n/a	0.0	0	0	0	FR3	2	R1154D
896.332	0.818	918000	WORD_OFF	n/a	n/a	MOUSE	10	0	3	[0, 0, 0]	n/a	0	0	0	n/a	n/a	0.0	0	0	0	FR3	2	R1154D
897.15	1.6	918818	WORD	n/a	wordpools/wordpool.txt	DART	11	0	3	[0, 0, 0]	n/a	0	0	0	n/a	n/a	0.0	0	0	0	FR3	2	R1154D
898.766	0.85	920434	WORD_OFF	n/a	n/a	DART	11	0	3	[0, 0, 0]	n/a	0	0	0	n/a	n/a	0.0	0	0	0	FR3	2	R1154D
899.616	1.6	921284	WORD	n/a	wordpools/wordpool.txt	TAIL	12	1	3	[0, 0, 0]	n/a	0	0	0	n/a	n/a	0.0	0	0	0	FR3	2	R1154D
901.234	0.0	922902	WORD_OFF	n/a	n/a	TAIL	12	0	3	[0, 0, 0]	n/a	0	0	0	n/a	n/a	0.0	0	0	0	FR3	2	R1154D
901.234	0.0	922902	DISTRACT_START	n/a	n/a	n/a	-999	0	3	[0, 0, 0]	n/a	0	0	0	n/a	n/a	0.0	0	0	0	FR3	2	R1154D
901.234	0.016	922902	START	n/a	n/a	n/a	-999	0	3	[-999, -999, -999]	n/a	0	0	0	n/a	n/a	0.0	0	0	0	FR3	2	R1154D
901.25	3.701	922918	PROB	3.677	n/a	n/a	-999	0	3	[8, 5, 7]	20	0	0	0	n/a	n/a	0.0	0	0	0	FR3	2	R1154D
904.951	1.633	926618	PROB	1.607	n/a	n/a	-999	0	3	[4, 2, 6]	12	0	0	0	n/a	n/a	0.0	0	0	0	FR3	2	R1154D
906.584	6.051	928251	PROB	6.022	n/a	n/a	-999	0	3	[8, 9, 8]	24	0	0	0	n/a	n/a	0.0	0	0	0	FR3	2	R1154D
912.635	1.85	934302	PROB	1.811	n/a	n/a	-999	0	3	[5, 1, 9]	15	0	0	0	n/a	n/a	0.0	0	0	0	FR3	2	R1154D
914.485	2.335	936152	PROB	2.304	n/a	n/a	-999	0	3	[3, 6, 7]	16	0	0	0	n/a	n/a	0.0	0	0	0	FR3	2	R1154D
916.82	1.833	938487	PROB	1.803	n/a	n/a	-999	0	3	[1, 8, 9]	18	0	0	0	n/a	n/a	0.0	0	0	0	FR3	2	R1154D
918.653	1.634	940320	PROB	1.61	n/a	n/a	-999	0	3	[3, 5, 4]	12	0	0	0	n/a	n/a	0.0	0	0	0	FR3	2	R1154D
920.287	2.39	941954	PROB	2.39	n/a	n/a	-999	0	3	[5, 3, 1]	9	0	0	0	n/a	n/a	0.0	0	0	0	FR3	2	R1154D
922.677	0.01	944344	STOP	n/a	n/a	n/a	-999	0	3	[-999, -999, -999]	n/a	0	0	0	n/a	n/a	0.0	0	0	0	FR3	2	R1154D
922.687	0.65	944354	DISTRACT_END	n/a	n/a	n/a	-999	0	3	[0, 0, 0]	n/a	0	0	0	n/a	n/a	0.0	0	0	0	FR3	2	R1154D
923.337	0.5	945003	RETRIEVAL_ORIENT	n/a	n/a	n/a	-999	0	3	[0, 0, 0]	n/a	0	0	0	n/a	n/a	0.0	0	0	0	FR3	2	R1154D
923.855	0.761	945521	REC_START	n/a	n/a	n/a	-999	0	3	[0, 0, 0]	n/a	0	0	0	n/a	n/a	0.0	0	0	0	FR3	2	R1154D
924.616	1.257	946282	REC_WORD	0.761	n/a	FUR	8	1	3	[0, 0, 0]	n/a	0	0	0	n/a	n/a	0.0	0	0	0	FR3	2	R1154D
925.873	0.542	947539	REC_WORD	2.018	n/a	CAGE	-999	0	3	[0, 0, 0]	n/a	0	0	0	n/a	n/a	0.0	0	0	0	FR3	2	R1154D
926.415	0.501	948081	REC_WORD	2.56	n/a	MOUSE	10	1	3	[0, 0, 0]	n/a	0	0	0	n/a	n/a	0.0	0	0	0	FR3	2	R1154D
926.916	1.383	948582	REC_WORD	3.061	n/a	TAIL	12	1	3	[0, 0, 0]	n/a	0	0	0	n/a	n/a	0.0	0	0	0	FR3	2	R1154D
928.299	2.316	949965	REC_WORD	4.444	n/a	BATH	3	1	3	[0, 0, 0]	n/a	0	0	0	n/a	n/a	0.0	0	0	0	FR3	2	R1154D
930.615	5.627	952281	REC_WORD	6.76	n/a	CAGE	-999	0	3	[0, 0, 0]	n/a	0	0	0	n/a	n/a	0.0	0	0	0	FR3	2	R1154D
936.242	8.202	957908	REC_WORD	12.387	n/a	SHOE	5	1	3	[0, 0, 0]	n/a	0	0	0	n/a	n/a	0.0	0	0	0	FR3	2	R1154D
944.444	1.322	966109	REC_WORD_VV	20.589	n/a	<>	-999	0	3	[0, 0, 0]	n/a	0	0	0	n/a	n/a	0.0	0	0	0	FR3	2	R1154D
945.766	1.337	967431	REC_WORD_VV	21.911	n/a	<>	-999	0	3	[0, 0, 0]	n/a	0	0	0	n/a	n/a	0.0	0	0	0	FR3	2	R1154D
947.103	0.704	968768	REC_WORD	23.248	n/a	CANE	1	1	3	[0, 0, 0]	n/a	0	0	0	n/a	n/a	0.0	0	0	0	FR3	2	R1154D
947.807	0.663	969472	REC_WORD	23.952	n/a	VASE	2	1	3	[0, 0, 0]	n/a	0	0	0	n/a	n/a	0.0	0	0	0	FR3	2	R1154D
948.47	1.0	970135	REC_WORD_VV	24.615	n/a	<>	-999	0	3	[0, 0, 0]	n/a	0	0	0	n/a	n/a	0.0	0	0	0	FR3	2	R1154D
949.47	4.398	971135	REC_WORD_VV	25.615	n/a	<>	-999	0	3	[0, 0, 0]	n/a	0	0	0	n/a	n/a	0.0	0	0	0	FR3	2	R1154D
953.868	5.21	975533	REC_END	n/a	n/a	n/a	-999	0	3	[0, 0, 0]	n/a	0	0	0	n/a	n/a	0.0	0	0	0	FR3	2	R1154D
959.078	0.5	980743	TRIAL	n/a	n/a	n/a	-999	0	4	[0, 0, 0]	n/a	0	1	0	n/a	n/a	0.0	0	0	0	FR3	2	R1154D
959.578	10.0	981243	COUNTDOWN_START	n/a	n/a	n/a	-999	0	4	[0, 0, 0]	n/a	0	1	0	n/a	n/a	0.0	0	0	0	FR3	2	R1154D
970.006	0.007	991670	COUNTDOWN_END	n/a	n/a	n/a	-999	0	4	[0, 0, 0]	n/a	0	1	0	n/a	n/a	0.0	0	0	0	FR3	2	R1154D
970.013	1.6	991677	ORIENT	n/a	n/a	n/a	-999	0	4	[0, 0, 0]	n/a	0	1	0	n/a	n/a	0.0	0	0	0	FR3	2	R1154D
971.629	2.117	993293	ORIENT_OFF	n/a	n/a	n/a	-999	0	4	[0, 0, 0]	n/a	0	1	0	n/a	n/a	0.0	0	0	0	FR3	2	R1154D
973.746	1.6	995410	WORD	n/a	wordpools/wordpool.txt	TOOL	1	1	4	[0, 0, 0]	n/a	0	1	0	n/a	n/a	0.0	0	0	0	FR3	2	R1154D
975.363	0.768	997027	WORD_OFF	n/a	n/a	TOOL	1	0	4	[0, 0, 0]	n/a	0	1	0	n/a	n/a	0.0	0	0	0	FR3	2	R1154D
976.131	1.6	997795	WORD	n/a	wordpools/wordpool.txt	JAIL	2	1	4	[0, 0, 0]	n/a	0	1	0	n/a	n/a	0.0	0	0	0	FR3	2	R1154D
977.747	1.0	999411	WORD_OFF	n/a	n/a	JAIL	2	0	4	[0, 0, 0]	n/a	0	1	0	n/a	n/a	0.0	0	0	0	FR3	2	R1154D
978.747	1.6	1000410	WORD	n/a	wordpools/wordpool.txt	TRASH	3	0	4	[0, 0, 0]	n/a	0	1	0	n/a	n/a	0.0	0	0	0	FR3	2	R1154D
980.364	0.784	1002027	WORD_OFF	n/a	n/a	TRASH	3	0	4	[0, 0, 0]	n/a	0	1	0	n/a	n/a	0.0	0	0	0	FR3	2	R1154D
981.148	1.6	1002811	WORD	n/a	wordpools/wordpool.txt	BRANCH	4	0	4	[0, 0, 0]	n/a	0	1	0	n/a	n/a	0.0	0	0	0	FR3	2	R1154D
982.765	0.933	1004428	WORD_OFF	n/a	n/a	BRANCH	4	0	4	[0, 0, 0]	n/a	0	1	0	n/a	n/a	0.0	0	0	0	FR3	2	R1154D
983.698	1.6	1005361	WORD	n/a	wordpools/wordpool.txt	NET	5	0	4	[0, 0, 0]	n/a	0	1	0	n/a	n/a	0.0	0	0	0	FR3	2	R1154D
985.315	0.918	1006978	WORD_OFF	n/a	n/a	NET	5	0	4	[0, 0, 0]	n/a	0	1	0	n/a	n/a	0.0	0	0	0	FR3	2	R1154D
986.233	1.6	1007896	WORD	n/a	wordpools/wordpool.txt	COIN	6	0	4	[0, 0, 0]	n/a	0	1	0	n/a	n/a	0.0	0	0	0	FR3	2	R1154D
987.736	0.0	1009399	STIM_ON	n/a	n/a	COIN	6	0	4	[0, 0, 0]	n/a	1	1	500	LTCG29	LTCG30	1000.0	200	100	300	FR3	2	R1154D
987.85	0.386	1009513	WORD_OFF	n/a	n/a	COIN	6	0	4	[0, 0, 0]	n/a	1	1	500	LTCG29	LTCG30	1000.0	200	100	300	FR3	2	R1154D
988.236	0.63	1009899	STIM_OFF	n/a	n/a	n/a	6	0	4	[0, 0, 0]	n/a	0	1	500	LTCG29	LTCG30	1000.0	200	100	300	FR3	2	R1154D
988.866	1.6	1010529	WORD	n/a	wordpools/wordpool.txt	MAIL	7	1	4	[0, 0, 0]	n/a	0	1	0	n/a	n/a	0.0	0	0	0	FR3	2	R1154D
990.482	1.001	1012145	WORD_OFF	n/a	n/a	MAIL	7	0	4	[0, 0, 0]	n/a	0	1	0	n/a	n/a	0.0	0	0	0	FR3	2	R1154D
991.483	1.6	1013146	WORD	n/a	wordpools/wordpool.txt	WORLD	8	0	4	[0, 0, 0]	n/a	0	1	0	n/a	n/a	0.0	0	0	0	FR3	2	R1154D
993.101	0.85	1014764	WORD_OFF	n/a	n/a	WORLD	8	0	4	[0, 0, 0]	n/a	0	1	0	n/a	n/a	0.0	0	0	0	FR3	2	R1154D
993.951	1.6	1015614	WORD	n/a	wordpools/wordpool.txt	SEED	9	0	4	[0, 0, 0]	n/a	0	1	0	n/a	n/a	0.0	0	0	0	FR3	2	R1154D
995.567	0.783	1017230	WORD_OFF	n/a	n/a	SEED	9	0	4	[0, 0, 0]	n/a	0	1	0	n/a	n/a	0.0	0	0	0	FR3	2	R1154D
996.35	1.6	1018013	WORD	n/a	wordpools/wordpool.txt	CLOCK	10	0	4	[0, 0, 0]	n/a	0	1	0	n/a	n/a	0.0	0	0	0	FR3	2	R1154D
997.861	0.0	1019523	STIM_ON	n/a	n/a	CLOCK	10	0	4	[0, 0, 0]	n/a	1	1	500	LTCG29	LTCG30	1000.0	200	100	300	FR3	2	R1154D
997.968	0.393	1019630	WORD_OFF	n/a	n/a	CLOCK	10	0	4	[0, 0, 0]	n/a	1	1	500	LTCG29	LTCG30	1000.0	200	100	300	FR3	2	R1154D
998.361	0.524	1020023	STIM_OFF	n/a	n/a	n/a	10	0	4	[0, 0, 0]	n/a	0	1	500	LTCG29	LTCG30	1000.0	200	100	300	FR3	2	R1154D
998.885	1.6	1020547	WORD	n/a	wordpools/wordpool.txt	SKI	11	0	4	[0, 0, 0]	n/a	0	1	0	n/a	n/a	0.0	0	0	0	FR3	2	R1154D
1000.501	0.801	1022163	WORD_OFF	n/a	n/a	SKI	11	0	4	[0, 0, 0]	n/a	0	1	0	n/a	n/a	0.0	0	0	0	FR3	2	R1154D
1001.302	1.6	1022964	WORD	n/a	wordpools/wordpool.txt	STONE	12	0	4	[0, 0, 0]	n/a	0	1	0	n/a	n/a	0.0	0	0	0	FR3	2	R1154D
1002.919	0.0	1024581	WORD_OFF	n/a	n/a	STONE	12	0	4	[0, 0, 0]	n/a	0	1	0	n/a	n/a	0.0	0	0	0	FR3	2	R1154D
1002.919	0.001	1024581	DISTRACT_START	n/a	n/a	n/a	-999	0	4	[0, 0, 0]	n/a	0	1	0	n/a	n/a	0.0	0	0	0	FR3	2	R1154D
1002.92	0.016	1024582	START	n/a	n/a	n/a	-999	0	4	[-999, -999, -999]	n/a	0	1	0	n/a	n/a	0.0	0	0	0	FR3	2	R1154D
1002.936	3.15	1024598	PROB	3.111	n/a	n/a	-999	0	4	[7, 4, 4]	15	0	1	0	n/a	n/a	0.0	0	0	0	FR3	2	R1154D
1006.086	2.167	1027748	PROB	2.137	n/a	n/a	-999	0	4	[1, 7, 8]	16	0	1	0	n/a	n/a	0.0	0	0	0	FR3	2	R1154D
1008.253	1.851	1029915	PROB	1.819	n/a	n/a	-999	0	4	[1, 6, 3]	10	0	1	0	n/a	n/a	0.0	0	0	0	FR3	2	R1154D
1010.104	2.332	1031766	PROB	2.302	n/a	n/a	-999	0	4	[4, 6, 3]	13	0	1	0	n/a	n/a	0.0	0	0	0	FR3	2	R1154D
1012.436	2.101	1034098	PROB	2.067	n/a	n/a	-999	0	4	[4, 4, 8]	16	0	1	0	n/a	n/a	0.0	0	0	0	FR3	2	R1154D
1014.537	1.984	1036199	PROB	1.948	n/a	n/a	-999	0	4	[9, 9, 3]	21	0	1	0	n/a	n/a	0.0	0	0	0	FR3	2	R1154D
1016.521	2.05	1038182	PROB	2.013	n/a	n/a	-999	0	4	[9, 4, 6]	19	0	1	0	n/a	n/a	0.0	0	0	0	FR3	2	R1154D
1018.571	1.817	1040232	PROB	1.787	n/a	n/a	-999	0	4	[2, 6, 9]	17	0	1	0	n/a	n/a	0.0	0	0	0	FR3	2	R1154D
1020.388	1.95	1042049	PROB	1.914	n/a	n/a	-999	0	4	[3, 4, 6]	13	0	1	0	n/a	n/a	0.0	0	0	0	FR3	2	R1154D
1022.338	2.043	1043999	PROB	2.043	n/a	n/a	-999	0	4	[1, 2, 5]	8	0	1	0	n/a	n/a	0.0	0	0	0	FR3	2	R1154D
1024.381	0.008	1046042	STOP	n/a	n/a	n/a	-999	0	4	[-999, -999, -999]	n/a	0	1	0	n/a	n/a	0.0	0	0	0	FR3	2	R1154D
1024.389	0.601	1046050	DISTRACT_END	n/a	n/a	n/a	-999	0	4	[0, 0, 0]	n/a	0	1	0	n/a	n/a	0.0	0	0	0	FR3	2	R1154D
1024.99	0.5	1046651	RETRIEVAL_ORIENT	n/a	n/a	n/a	-999	0	4	[0, 0, 0]	n/a	0	1	0	n/a	n/a	0.0	0	0	0	FR3	2	R1154D
1025.506	0.606	1047167	REC_START	n/a	n/a	n/a	-999	0	4	[0, 0, 0]	n/a	0	1	0	n/a	n/a	0.0	0	0	0	FR3	2	R1154D
1026.112	0.819	1047773	REC_WORD	0.606	n/a	MAIL	7	1	4	[0, 0, 0]	n/a	0	1	0	n/a	n/a	0.0	0	0	0	FR3	2	R1154D
1026.931	5.179	1048592	REC_WORD	1.425	n/a	JAIL	2	1	4	[0, 0, 0]	n/a	0	1	0	n/a	n/a	0.0	0	0	0	FR3	2	R1154D
1032.11	1.0	1053771	REC_WORD_VV	6.604	n/a	<>	-999	0	4	[0, 0, 0]	n/a	0	1	0	n/a	n/a	0.0	0	0	0	FR3	2	R1154D
1033.11	1.46	1054771	REC_WORD_VV	7.604	n/a	<>	-999	0	4	[0, 0, 0]	n/a	0	1	0	n/a	n/a	0.0	0	0	0	FR3	2	R1154D
1034.57	0.893	1056230	REC_WORD	9.064	n/a	JAIL	2	1	4	[0, 0, 0]	n/a	0	1	0	n/a	n/a	0.0	0	0	0	FR3	2	R1154D
1035.463	7.846	1057123	REC_WORD_VV	9.957	n/a	<>	-999	0	4	[0, 0, 0]	n/a	0	1	0	n/a	n/a	0.0	0	0	0	FR3	2	R1154D
1043.309	12.208	1064969	REC_WORD	17.803	n/a	TOOL	1	1	4	[0, 0, 0]	n/a	0	1	0	n/a	n/a	0.0	0	0	0	FR3	2	R1154D
1055.517	4.313	1077176	REC_END	n/a	n/a	n/a	-999	0	4	[0, 0, 0]	n/a	0	1	0	n/a	n/a	0.0	0	0	0	FR3	2	R1154D
1059.83	0.5	1081489	TRIAL	n/a	n/a	n/a	-999	0	5	[0, 0, 0]	n/a	0	0	0	n/a	n/a	0.0	0	0	0	FR3	2	R1154D
1060.33	10.0	1081989	COUNTDOWN_START	n/a	n/a	n/a	-999	0	5	[0, 0, 0]	n/a	0	0	0	n/a	n/a	0.0	0	0	0	FR3	2	R1154D
1070.758	0.006	1092417	COUNTDOWN_END	n/a	n/a	n/a	-999	0	5	[0, 0, 0]	n/a	0	0	0	n/a	n/a	0.0	0	0	0	FR3	2	R1154D
1070.764	1.6	1092423	ORIENT	n/a	n/a	n/a	-999	0	5	[0, 0, 0]	n/a	0	0	0	n/a	n/a	0.0	0	0	0	FR3	2	R1154D
1072.381	2.0	1094039	ORIENT_OFF	n/a	n/a	n/a	-999	0	5	[0, 0, 0]	n/a	0	0	0	n/a	n/a	0.0	0	0	0	FR3	2	R1154D
1074.381	1.6	1096039	WORD	n/a	wordpools/wordpool.txt	FLAME	1	1	5	[0, 0, 0]	n/a	0	0	0	n/a	n/a	0.0	0	0	0	FR3	2	R1154D
1075.982	0.917	1097640	WORD_OFF	n/a	n/a	FLAME	1	0	5	[0, 0, 0]	n/a	0	0	0	n/a	n/a	0.0	0	0	0	FR3	2	R1154D
1076.899	1.6	1098557	WORD	n/a	wordpools/wordpool.txt	GATE	2	1	5	[0, 0, 0]	n/a	0	0	0	n/a	n/a	0.0	0	0	0	FR3	2	R1154D
1078.515	0.967	1100173	WORD_OFF	n/a	n/a	GATE	2	0	5	[0, 0, 0]	n/a	0	0	0	n/a	n/a	0.0	0	0	0	FR3	2	R1154D
1079.482	1.6	1101140	WORD	n/a	wordpools/wordpool.txt	HORN	3	0	5	[0, 0, 0]	n/a	0	0	0	n/a	n/a	0.0	0	0	0	FR3	2	R1154D
1081.1	0.867	1102758	WORD_OFF	n/a	n/a	HORN	3	0	5	[0, 0, 0]	n/a	0	0	0	n/a	n/a	0.0	0	0	0	FR3	2	R1154D
1081.967	1.6	1103625	WORD	n/a	wordpools/wordpool.txt	STRAW	4	0	5	[0, 0, 0]	n/a	0	0	0	n/a	n/a	0.0	0	0	0	FR3	2	R1154D
1083.583	0.8	1105241	WORD_OFF	n/a	n/a	STRAW	4	0	5	[0, 0, 0]	n/a	0	0	0	n/a	n/a	0.0	0	0	0	FR3	2	R1154D
1084.383	1.6	1106041	WORD	n/a	wordpools/wordpool.txt	FLOOR	5	0	5	[0, 0, 0]	n/a	0	0	0	n/a	n/a	0.0	0	0	0	FR3	2	R1154D
1086.001	0.9	1107659	WORD_OFF	n/a	n/a	FLOOR	5	0	5	[0, 0, 0]	n/a	0	0	0	n/a	n/a	0.0	0	0	0	FR3	2	R1154D
1086.901	1.6	1108559	WORD	n/a	wordpools/wordpool.txt	FLUTE	6	0	5	[0, 0, 0]	n/a	0	0	0	n/a	n/a	0.0	0	0	0	FR3	2	R1154D
1088.517	0.784	1110175	WORD_OFF	n/a	n/a	FLUTE	6	0	5	[0, 0, 0]	n/a	0	0	0	n/a	n/a	0.0	0	0	0	FR3	2	R1154D
1089.301	1.6	1110959	WORD	n/a	wordpools/wordpool.txt	BREAD	7	0	5	[0, 0, 0]	n/a	0	0	0	n/a	n/a	0.0	0	0	0	FR3	2	R1154D
1090.918	0.967	1112575	WORD_OFF	n/a	n/a	BREAD	7	0	5	[0, 0, 0]	n/a	0	0	0	n/a	n/a	0.0	0	0	0	FR3	2	R1154D
1091.885	1.6	1113542	WORD	n/a	wordpools/wordpool.txt	MAT	8	0	5	[0, 0, 0]	n/a	0	0	0	n/a	n/a	0.0	0	0	0	FR3	2	R1154D
1093.501	0.967	1115158	WORD_OFF	n/a	n/a	MAT	8	0	5	[0, 0, 0]	n/a	0	0	0	n/a	n/a	0.0	0	0	0	FR3	2	R1154D
1094.468	1.6	1116125	WORD	n/a	wordpools/wordpool.txt	WEB	9	1	5	[0, 0, 0]	n/a	0	0	0	n/a	n/a	0.0	0	0	0	FR3	2	R1154D
1096.086	0.85	1117743	WORD_OFF	n/a	n/a	WEB	9	0	5	[0, 0, 0]	n/a	0	0	0	n/a	n/a	0.0	0	0	0	FR3	2	R1154D
1096.936	1.6	1118593	WORD	n/a	wordpools/wordpool.txt	BEAN	10	0	5	[0, 0, 0]	n/a	0	0	0	n/a	n/a	0.0	0	0	0	FR3	2	R1154D
1098.552	1.0	1120209	WORD_OFF	n/a	n/a	BEAN	10	0	5	[0, 0, 0]	n/a	0	0	0	n/a	n/a	0.0	0	0	0	FR3	2	R1154D
1099.552	1.6	1121209	WORD	n/a	wordpools/wordpool.txt	PIG	11	1	5	[0, 0, 0]	n/a	0	0	0	n/a	n/a	0.0	0	0	0	FR3	2	R1154D
1101.17	0.801	1122827	WORD_OFF	n/a	n/a	PIG	11	0	5	[0, 0, 0]	n/a	0	0	0	n/a	n/a	0.0	0	0	0	FR3	2	R1154D
1101.971	1.6	1123628	WORD	n/a	wordpools/wordpool.txt	SOCK	12	0	5	[0, 0, 0]	n/a	0	0	0	n/a	n/a	0.0	0	0	0	FR3	2	R1154D
1103.587	0.0	1125244	WORD_OFF	n/a	n/a	SOCK	12	0	5	[0, 0, 0]	n/a	0	0	0	n/a	n/a	0.0	0	0	0	FR3	2	R1154D
1103.587	0.0	1125244	DISTRACT_START	n/a	n/a	n/a	-999	0	5	[0, 0, 0]	n/a	0	0	0	n/a	n/a	0.0	0	0	0	FR3	2	R1154D
1103.587	0.016	1125244	START	n/a	n/a	n/a	-999	0	5	[-999, -999, -999]	n/a	0	0	0	n/a	n/a	0.0	0	0	0	FR3	2	R1154D
1103.603	3.701	1125260	PROB	3.669	n/a	n/a	-999	0	5	[1, 8, 8]	10	0	0	0	n/a	n/a	0.0	0	0	0	FR3	2	R1154D
1107.304	2.467	1128961	PROB	2.437	n/a	n/a	-999	0	5	[7, 6, 3]	16	0	0	0	n/a	n/a	0.0	0	0	0	FR3	2	R1154D
1109.771	1.934	1131427	PROB	1.907	n/a	n/a	-999	0	5	[5, 8, 1]	14	0	0	0	n/a	n/a	0.0	0	0	0	FR3	2	R1154D
1111.705	1.251	1133361	PROB	1.221	n/a	n/a	-999	0	5	[9, 1, 3]	13	0	0	0	n/a	n/a	0.0	0	0	0	FR3	2	R1154D
1112.956	2.084	1134612	PROB	2.059	n/a	n/a	-999	0	5	[2, 8, 5]	15	0	0	0	n/a	n/a	0.0	0	0	0	FR3	2	R1154D
1115.04	3.449	1136696	PROB	3.422	n/a	n/a	-999	0	5	[6, 7, 9]	21	0	0	0	n/a	n/a	0.0	0	0	0	FR3	2	R1154D
1118.489	4.802	1140145	PROB	4.766	n/a	n/a	-999	0	5	[7, 6, 9]	22	0	0	0	n/a	n/a	0.0	0	0	0	FR3	2	R1154D
1123.291	1.797	1144947	PROB	1.797	n/a	n/a	-999	0	5	[2, 4, 2]	7	0	0	0	n/a	n/a	0.0	0	0	0	FR3	2	R1154D
1125.088	0.02	1146744	STOP	n/a	n/a	n/a	-999	0	5	[-999, -999, -999]	n/a	0	0	0	n/a	n/a	0.0	0	0	0	FR3	2	R1154D
1125.108	0.649	1146764	DISTRACT_END	n/a	n/a	n/a	-999	0	5	[0, 0, 0]	n/a	0	0	0	n/a	n/a	0.0	0	0	0	FR3	2	R1154D
1125.757	0.5	1147413	RETRIEVAL_ORIENT	n/a	n/a	n/a	-999	0	5	[0, 0, 0]	n/a	0	0	0	n/a	n/a	0.0	0	0	0	FR3	2	R1154D
1126.276	0.648	1147932	REC_START	n/a	n/a	n/a	-999	0	5	[0, 0, 0]	n/a	0	0	0	n/a	n/a	0.0	0	0	0	FR3	2	R1154D
1126.924	0.89	1148580	REC_WORD	0.648	n/a	FLAME	1	1	5	[0, 0, 0]	n/a	0	0	0	n/a	n/a	0.0	0	0	0	FR3	2	R1154D
1127.814	11.97	1149469	REC_WORD	1.538	n/a	GATE	2	1	5	[0, 0, 0]	n/a	0	0	0	n/a	n/a	0.0	0	0	0	FR3	2	R1154D
1139.784	3.117	1161439	REC_WORD_VV	13.508	n/a	<>	-999	0	5	[0, 0, 0]	n/a	0	0	0	n/a	n/a	0.0	0	0	0	FR3	2	R1154D
1142.901	8.363	1164556	REC_WORD	16.625	n/a	GATE	2	1	5	[0, 0, 0]	n/a	0	0	0	n/a	n/a	0.0	0	0	0	FR3	2	R1154D
1151.264	4.56	1172918	REC_WORD	24.988	n/a	PIG	11	1	5	[0, 0, 0]	n/a	0	0	0	n/a	n/a	0.0	0	0	0	FR3	2	R1154D
1155.824	0.465	1177478	REC_WORD	29.548	n/a	WEB	9	1	5	[0, 0, 0]	n/a	0	0	0	n/a	n/a	0.0	0	0	0	FR3	2	R1154D
1156.289	4.258	1177943	REC_END	n/a	n/a	n/a	-999	0	5	[0, 0, 0]	n/a	0	0	0	n/a	n/a	0.0	0	0	0	FR3	2	R1154D
1160.547	0.5	1182201	TRIAL	n/a	n/a	n/a	-999	0	6	[0, 0, 0]	n/a	0	0	0	n/a	n/a	0.0	0	0	0	FR3	2	R1154D
1161.047	10.0	1182701	COUNTDOWN_START	n/a	n/a	n/a	-999	0	6	[0, 0, 0]	n/a	0	0	0	n/a	n/a	0.0	0	0	0	FR3	2	R1154D
1171.475	0.007	1193128	COUNTDOWN_END	n/a	n/a	n/a	-999	0	6	[0, 0, 0]	n/a	0	0	0	n/a	n/a	0.0	0	0	0	FR3	2	R1154D
1171.482	1.6	1193135	ORIENT	n/a	n/a	n/a	-999	0	6	[0, 0, 0]	n/a	0	0	0	n/a	n/a	0.0	0	0	0	FR3	2	R1154D
1173.1	2.051	1194753	ORIENT_OFF	n/a	n/a	n/a	-999	0	6	[0, 0, 0]	n/a	0	0	0	n/a	n/a	0.0	0	0	0	FR3	2	R1154D
1175.151	1.6	1196804	WORD	n/a	wordpools/wordpool.txt	SMOKE	1	1	6	[0, 0, 0]	n/a	0	0	0	n/a	n/a	0.0	0	0	0	FR3	2	R1154D
1176.766	0.967	1198419	WORD_OFF	n/a	n/a	SMOKE	1	0	6	[0, 0, 0]	n/a	0	0	0	n/a	n/a	0.0	0	0	0	FR3	2	R1154D
1177.733	1.6	1199386	WORD	n/a	wordpools/wordpool.txt	STOVE	2	0	6	[0, 0, 0]	n/a	0	0	0	n/a	n/a	0.0	0	0	0	FR3	2	R1154D
1179.35	0.818	1201003	WORD_OFF	n/a	n/a	STOVE	2	0	6	[0, 0, 0]	n/a	0	0	0	n/a	n/a	0.0	0	0	0	FR3	2	R1154D
1180.168	1.6	1201821	WORD	n/a	wordpools/wordpool.txt	PANTS	3	0	6	[0, 0, 0]	n/a	0	0	0	n/a	n/a	0.0	0	0	0	FR3	2	R1154D
1181.784	0.867	1203437	WORD_OFF	n/a	n/a	PANTS	3	0	6	[0, 0, 0]	n/a	0	0	0	n/a	n/a	0.0	0	0	0	FR3	2	R1154D
1182.651	1.6	1204304	WORD	n/a	wordpools/wordpool.txt	BEAK	4	0	6	[0, 0, 0]	n/a	0	0	0	n/a	n/a	0.0	0	0	0	FR3	2	R1154D
1184.269	0.817	1205921	WORD_OFF	n/a	n/a	BEAK	4	0	6	[0, 0, 0]	n/a	0	0	0	n/a	n/a	0.0	0	0	0	FR3	2	R1154D
1185.086	1.6	1206738	WORD	n/a	wordpools/wordpool.txt	PIPE	5	1	6	[0, 0, 0]	n/a	0	0	0	n/a	n/a	0.0	0	0	0	FR3	2	R1154D
1186.702	0.816	1208354	WORD_OFF	n/a	n/a	PIPE	5	0	6	[0, 0, 0]	n/a	0	0	0	n/a	n/a	0.0	0	0	0	FR3	2	R1154D
1187.518	1.6	1209170	WORD	n/a	wordpools/wordpool.txt	RAKE	6	0	6	[0, 0, 0]	n/a	0	0	0	n/a	n/a	0.0	0	0	0	FR3	2	R1154D
1189.136	0.784	1210788	WORD_OFF	n/a	n/a	RAKE	6	0	6	[0, 0, 0]	n/a	0	0	0	n/a	n/a	0.0	0	0	0	FR3	2	R1154D
1189.92	1.6	1211572	WORD	n/a	wordpools/wordpool.txt	SPRING	7	0	6	[0, 0, 0]	n/a	0	0	0	n/a	n/a	0.0	0	0	0	FR3	2	R1154D
1191.536	0.817	1213188	WORD_OFF	n/a	n/a	SPRING	7	0	6	[0, 0, 0]	n/a	0	0	0	n/a	n/a	0.0	0	0	0	FR3	2	R1154D
1192.353	1.6	1214005	WORD	n/a	wordpools/wordpool.txt	TIE	8	0	6	[0, 0, 0]	n/a	0	0	0	n/a	n/a	0.0	0	0	0	FR3	2	R1154D
1193.971	0.765	1215623	WORD_OFF	n/a	n/a	TIE	8	0	6	[0, 0, 0]	n/a	0	0	0	n/a	n/a	0.0	0	0	0	FR3	2	R1154D
1194.736	1.6	1216388	WORD	n/a	wordpools/wordpool.txt	BOWL	9	1	6	[0, 0, 0]	n/a	0	0	0	n/a	n/a	0.0	0	0	0	FR3	2	R1154D
1196.353	0.902	1218005	WORD_OFF	n/a	n/a	BOWL	9	0	6	[0, 0, 0]	n/a	0	0	0	n/a	n/a	0.0	0	0	0	FR3	2	R1154D
1197.255	1.6	1218907	WORD	n/a	wordpools/wordpool.txt	CONE	10	0	6	[0, 0, 0]	n/a	0	0	0	n/a	n/a	0.0	0	0	0	FR3	2	R1154D
1198.871	0.833	1220523	WORD_OFF	n/a	n/a	CONE	10	0	6	[0, 0, 0]	n/a	0	0	0	n/a	n/a	0.0	0	0	0	FR3	2	R1154D
1199.704	1.6	1221356	WORD	n/a	wordpools/wordpool.txt	PEN	11	0	6	[0, 0, 0]	n/a	0	0	0	n/a	n/a	0.0	0	0	0	FR3	2	R1154D
1201.321	0.801	1222973	WORD_OFF	n/a	n/a	PEN	11	0	6	[0, 0, 0]	n/a	0	0	0	n/a	n/a	0.0	0	0	0	FR3	2	R1154D
1202.122	1.6	1223773	WORD	n/a	wordpools/wordpool.txt	HOUSE	12	0	6	[0, 0, 0]	n/a	0	0	0	n/a	n/a	0.0	0	0	0	FR3	2	R1154D
1203.738	0.0	1225389	WORD_OFF	n/a	n/a	HOUSE	12	0	6	[0, 0, 0]	n/a	0	0	0	n/a	n/a	0.0	0	0	0	FR3	2	R1154D
1203.738	0.001	1225389	DISTRACT_START	n/a	n/a	n/a	-999	0	6	[0, 0, 0]	n/a	0	0	0	n/a	n/a	0.0	0	0	0	FR3	2	R1154D
1203.739	0.016	1225390	START	n/a	n/a	n/a	-999	0	6	[-999, -999, -999]	n/a	0	0	0	n/a	n/a	0.0	0	0	0	FR3	2	R1154D
1203.755	4.017	1225406	PROB	3.979	n/a	n/a	-999	0	6	[7, 9, 7]	23	0	0	0	n/a	n/a	0.0	0	0	0	FR3	2	R1154D
1207.772	1.268	1229423	PROB	1.243	n/a	n/a	-999	0	6	[2, 1, 9]	12	0	0	0	n/a	n/a	0.0	0	0	0	FR3	2	R1154D
1209.04	1.834	1230691	PROB	1.799	n/a	n/a	-999	0	6	[5, 3, 6]	14	0	0	0	n/a	n/a	0.0	0	0	0	FR3	2	R1154D
1210.874	1.732	1232525	PROB	1.7	n/a	n/a	-999	0	6	[3, 2, 7]	12	0	0	0	n/a	n/a	0.0	0	0	0	FR3	2	R1154D
1212.606	1.685	1234257	PROB	1.658	n/a	n/a	-999	0	6	[8, 5, 3]	16	0	0	0	n/a	n/a	0.0	0	0	0	FR3	2	R1154D
1214.291	2.183	1235942	PROB	2.155	n/a	n/a	-999	0	6	[4, 4, 6]	14	0	0	0	n/a	n/a	0.0	0	0	0	FR3	2	R1154D
1216.474	2.818	1238125	PROB	2.781	n/a	n/a	-999	0	6	[5, 7, 1]	13	0	0	0	n/a	n/a	0.0	0	0	0	FR3	2	R1154D
1219.292	2.166	1240943	PROB	2.138	n/a	n/a	-999	0	6	[8, 1, 4]	13	0	0	0	n/a	n/a	0.0	0	0	0	FR3	2	R1154D
1221.458	2.605	1243108	PROB	2.605	n/a	n/a	-999	0	6	[4, 9, 4]	17	0	0	0	n/a	n/a	0.0	0	0	0	FR3	2	R1154D
1224.063	0.013	1245713	STOP	n/a	n/a	n/a	-999	0	6	[-999, -999, -999]	n/a	0	0	0	n/a	n/a	0.0	0	0	0	FR3	2	R1154D
1224.076	0.549	1245726	DISTRACT_END	n/a	n/a	n/a	-999	0	6	[0, 0, 0]	n/a	0	0	0	n/a	n/a	0.0	0	0	0	FR3	2	R1154D
1224.625	0.5	1246275	RETRIEVAL_ORIENT	n/a	n/a	n/a	-999	0	6	[0, 0, 0]	n/a	0	0	0	n/a	n/a	0.0	0	0	0	FR3	2	R1154D
1225.144	1.891	1246794	REC_START	n/a	n/a	n/a	-999	0	6	[0, 0, 0]	n/a	0	0	0	n/a	n/a	0.0	0	0	0	FR3	2	R1154D
1227.035	0.441	1248685	REC_WORD	1.891	n/a	PIPE	5	1	6	[0, 0, 0]	n/a	0	0	0	n/a	n/a	0.0	0	0	0	FR3	2	R1154D
1227.476	0.686	1249126	REC_WORD	2.332	n/a	SMOKE	1	1	6	[0, 0, 0]	n/a	0	0	0	n/a	n/a	0.0	0	0	0	FR3	2	R1154D
1228.162	1.034	1249812	REC_WORD	3.018	n/a	BOWL	9	1	6	[0, 0, 0]	n/a	0	0	0	n/a	n/a	0.0	0	0	0	FR3	2	R1154D
1229.196	0.789	1250846	REC_WORD_VV	4.052	n/a	<>	-999	0	6	[0, 0, 0]	n/a	0	0	0	n/a	n/a	0.0	0	0	0	FR3	2	R1154D
1229.985	0.926	1251635	REC_WORD_VV	4.841	n/a	<>	-999	0	6	[0, 0, 0]	n/a	0	0	0	n/a	n/a	0.0	0	0	0	FR3	2	R1154D
1230.911	1.177	1252561	REC_WORD_VV	5.767	n/a	<>	-999	0	6	[0, 0, 0]	n/a	0	0	0	n/a	n/a	0.0	0	0	0	FR3	2	R1154D
1232.088	23.068	1253738	REC_WORD_VV	6.944	n/a	<>	-999	0	6	[0, 0, 0]	n/a	0	0	0	n/a	n/a	0.0	0	0	0	FR3	2	R1154D
1255.156	5.626	1276805	REC_END	n/a	n/a	n/a	-999	0	6	[0, 0, 0]	n/a	0	0	0	n/a	n/a	0.0	0	0	0	FR3	2	R1154D
1260.782	0.5	1282430	TRIAL	n/a	n/a	n/a	-999	0	7	[0, 0, 0]	n/a	0	1	0	n/a	n/a	0.0	0	0	0	FR3	2	R1154D
1261.282	10.0	1282930	COUNTDOWN_START	n/a	n/a	n/a	-999	0	7	[0, 0, 0]	n/a	0	1	0	n/a	n/a	0.0	0	0	0	FR3	2	R1154D
1271.71	0.007	1293358	COUNTDOWN_END	n/a	n/a	n/a	-999	0	7	[0, 0, 0]	n/a	0	1	0	n/a	n/a	0.0	0	0	0	FR3	2	R1154D
1271.717	1.6	1293365	ORIENT	n/a	n/a	n/a	-999	0	7	[0, 0, 0]	n/a	0	1	0	n/a	n/a	0.0	0	0	0	FR3	2	R1154D
1273.334	1.785	1294982	ORIENT_OFF	n/a	n/a	n/a	-999	0	7	[0, 0, 0]	n/a	0	1	0	n/a	n/a	0.0	0	0	0	FR3	2	R1154D
1275.119	1.6	1296767	WORD	n/a	wordpools/wordpool.txt	MOLE	1	1	7	[0, 0, 0]	n/a	0	1	0	n/a	n/a	0.0	0	0	0	FR3	2	R1154D
1276.64	0.0	1298287	STIM_ON	n/a	n/a	MOLE	1	1	7	[0, 0, 0]	n/a	1	1	500	LTCG29	LTCG30	1000.0	200	100	300	FR3	2	R1154D
1276.735	0.405	1298382	WORD_OFF	n/a	n/a	MOLE	1	0	7	[0, 0, 0]	n/a	1	1	500	LTCG29	LTCG30	1000.0	200	100	300	FR3	2	R1154D
1277.14	0.595	1298787	STIM_OFF	n/a	n/a	n/a	1	0	7	[0, 0, 0]	n/a	0	1	500	LTCG29	LTCG30	1000.0	200	100	300	FR3	2	R1154D
1277.735	1.6	1299382	WORD	n/a	wordpools/wordpool.txt	WAVE	2	0	7	[0, 0, 0]	n/a	0	1	0	n/a	n/a	0.0	0	0	0	FR3	2	R1154D
1279.256	0.0	1300903	STIM_ON	n/a	n/a	WAVE	2	0	7	[0, 0, 0]	n/a	1	1	500	LTCG29	LTCG30	1000.0	200	100	300	FR3	2	R1154D
1279.352	0.404	1300999	WORD_OFF	n/a	n/a	WAVE	2	0	7	[0, 0, 0]	n/a	1	1	500	LTCG29	LTCG30	1000.0	200	100	300	FR3	2	R1154D
1279.756	0.447	1301403	STIM_OFF	n/a	n/a	n/a	2	0	7	[0, 0, 0]	n/a	0	1	500	LTCG29	LTCG30	1000.0	200	100	300	FR3	2	R1154D
1280.203	1.6	1301850	WORD	n/a	wordpools/wordpool.txt	PARK	3	1	7	[0, 0, 0]	n/a	0	1	0	n/a	n/a	0.0	0	0	0	FR3	2	R1154D
1281.82	0.799	1303467	WORD_OFF	n/a	n/a	PARK	3	0	7	[0, 0, 0]	n/a	0	1	0	n/a	n/a	0.0	0	0	0	FR3	2	R1154D
1282.619	1.6	1304266	WORD	n/a	wordpools/wordpool.txt	STAR	4	0	7	[0, 0, 0]	n/a	0	1	0	n/a	n/a	0.0	0	0	0	FR3	2	R1154D
1284.144	0.0	1305791	STIM_ON	n/a	n/a	STAR	4	0	7	[0, 0, 0]	n/a	1	1	500	LTCG29	LTCG30	1000.0	200	100	300	FR3	2	R1154D
1284.237	0.407	1305884	WORD_OFF	n/a	n/a	STAR	4	0	7	[0, 0, 0]	n/a	1	1	500	LTCG29	LTCG30	1000.0	200	100	300	FR3	2	R1154D
1284.644	0.377	1306291	STIM_OFF	n/a	n/a	n/a	4	0	7	[0, 0, 0]	n/a	0	1	500	LTCG29	LTCG30	1000.0	200	100	300	FR3	2	R1154D
1285.021	1.6	1306668	WORD	n/a	wordpools/wordpool.txt	HOOF	5	0	7	[0, 0, 0]	n/a	0	1	0	n/a	n/a	0.0	0	0	0	FR3	2	R1154D
1286.637	0.966	1308284	WORD_OFF	n/a	n/a	HOOF	5	0	7	[0, 0, 0]	n/a	0	1	0	n/a	n/a	0.0	0	0	0	FR3	2	R1154D
1287.603	1.6	1309250	WORD	n/a	wordpools/wordpool.txt	SPONGE	6	0	7	[0, 0, 0]	n/a	0	1	0	n/a	n/a	0.0	0	0	0	FR3	2	R1154D
1289.124	0.0	1310771	STIM_ON	n/a	n/a	SPONGE	6	0	7	[0, 0, 0]	n/a	1	1	500	LTCG29	LTCG30	1000.0	200	100	300	FR3	2	R1154D
1289.204	0.42	1310851	WORD_OFF	n/a	n/a	SPONGE	6	0	7	[0, 0, 0]	n/a	1	1	500	LTCG29	LTCG30	1000.0	200	100	300	FR3	2	R1154D
1289.624	0.531	1311271	STIM_OFF	n/a	n/a	n/a	6	0	7	[0, 0, 0]	n/a	0	1	500	LTCG29	LTCG30	1000.0	200	100	300	FR3	2	R1154D
1290.155	1.6	1311802	WORD	n/a	wordpools/wordpool.txt	FOG	7	1	7	[0, 0, 0]	n/a	0	1	0	n/a	n/a	0.0	0	0	0	FR3	2	R1154D
1291.676	0.0	1313323	STIM_ON	n/a	n/a	FOG	7	1	7	[0, 0, 0]	n/a	1	1	500	LTCG29	LTCG30	1000.0	200	100	300	FR3	2	R1154D
1291.771	0.405	1313418	WORD_OFF	n/a	n/a	FOG	7	0	7	[0, 0, 0]	n/a	1	1	500	LTCG29	LTCG30	1000.0	200	100	300	FR3	2	R1154D
1292.176	0.478	1313823	STIM_OFF	n/a	n/a	n/a	7	0	7	[0, 0, 0]	n/a	0	1	500	LTCG29	LTCG30	1000.0	200	100	300	FR3	2	R1154D
1292.654	1.6	1314301	WORD	n/a	wordpools/wordpool.txt	TEETH	8	0	7	[0, 0, 0]	n/a	0	1	0	n/a	n/a	0.0	0	0	0	FR3	2	R1154D
1294.255	0.768	1315902	WORD_OFF	n/a	n/a	TEETH	8	0	7	[0, 0, 0]	n/a	0	1	0	n/a	n/a	0.0	0	0	0	FR3	2	R1154D
1295.023	1.6	1316670	WORD	n/a	wordpools/wordpool.txt	LAND	9	1	7	[0, 0, 0]	n/a	0	1	0	n/a	n/a	0.0	0	0	0	FR3	2	R1154D
1296.638	1.017	1318284	WORD_OFF	n/a	n/a	LAND	9	0	7	[0, 0, 0]	n/a	0	1	0	n/a	n/a	0.0	0	0	0	FR3	2	R1154D
1297.655	1.6	1319301	WORD	n/a	wordpools/wordpool.txt	CORN	10	0	7	[0, 0, 0]	n/a	0	1	0	n/a	n/a	0.0	0	0	0	FR3	2	R1154D
1299.18	0.0	1320826	STIM_ON	n/a	n/a	CORN	10	0	7	[0, 0, 0]	n/a	1	1	500	LTCG29	LTCG30	1000.0	200	100	300	FR3	2	R1154D
1299.256	0.424	1320902	WORD_OFF	n/a	n/a	CORN	10	0	7	[0, 0, 0]	n/a	1	1	500	LTCG29	LTCG30	1000.0	200	100	300	FR3	2	R1154D
1299.68	0.377	1321326	STIM_OFF	n/a	n/a	n/a	10	0	7	[0, 0, 0]	n/a	0	1	500	LTCG29	LTCG30	1000.0	200	100	300	FR3	2	R1154D
1300.057	1.6	1321703	WORD	n/a	wordpools/wordpool.txt	SUN	11	1	7	[0, 0, 0]	n/a	0	1	0	n/a	n/a	0.0	0	0	0	FR3	2	R1154D
1301.673	0.783	1323319	WORD_OFF	n/a	n/a	SUN	11	0	7	[0, 0, 0]	n/a	0	1	0	n/a	n/a	0.0	0	0	0	FR3	2	R1154D
1302.456	1.6	1324102	WORD	n/a	wordpools/wordpool.txt	OWL	12	0	7	[0, 0, 0]	n/a	0	1	0	n/a	n/a	0.0	0	0	0	FR3	2	R1154D
1303.984	0.0	1325630	STIM_ON	n/a	n/a	OWL	12	0	7	[0, 0, 0]	n/a	1	1	500	LTCG29	LTCG30	1000.0	200	100	300	FR3	2	R1154D
1304.074	0.0	1325720	WORD_OFF	n/a	n/a	OWL	12	0	7	[0, 0, 0]	n/a	1	1	500	LTCG29	LTCG30	1000.0	200	100	300	FR3	2	R1154D
1304.074	0.001	1325720	DISTRACT_START	n/a	n/a	n/a	-999	0	7	[0, 0, 0]	n/a	1	1	500	LTCG29	LTCG30	1000.0	200	100	300	FR3	2	R1154D
1304.075	0.016	1325721	START	n/a	n/a	n/a	-999	0	7	[-999, -999, -999]	n/a	0	1	0	n/a	n/a	0.0	0	0	0	FR3	2	R1154D
1304.091	0.393	1325737	PROB	3.813	n/a	n/a	-999	0	7	[7, 9, 3]	19	0	1	0	n/a	n/a	0.0	0	0	0	FR3	2	R1154D
1304.484	3.457	1326130	STIM_OFF	n/a	n/a	n/a	-999	0	7	[0, 0, 0]	n/a	0	1	500	LTCG29	LTCG30	1000.0	200	100	300	FR3	2	R1154D
1307.941	1.901	1329587	PROB	1.866	n/a	n/a	-999	0	7	[4, 3, 2]	9	0	1	0	n/a	n/a	0.0	0	0	0	FR3	2	R1154D
1309.842	1.866	1331488	PROB	1.835	n/a	n/a	-999	0	7	[1, 1, 3]	5	0	1	0	n/a	n/a	0.0	0	0	0	FR3	2	R1154D
1311.708	1.767	1333354	PROB	1.737	n/a	n/a	-999	0	7	[3, 9, 9]	21	0	1	0	n/a	n/a	0.0	0	0	0	FR3	2	R1154D
1313.475	1.351	1335121	PROB	1.322	n/a	n/a	-999	0	7	[3, 3, 7]	13	0	1	0	n/a	n/a	0.0	0	0	0	FR3	2	R1154D
1314.826	1.633	1336471	PROB	1.596	n/a	n/a	-999	0	7	[6, 2, 2]	10	0	1	0	n/a	n/a	0.0	0	0	0	FR3	2	R1154D
1316.459	1.418	1338104	PROB	1.395	n/a	n/a	-999	0	7	[2, 2, 7]	11	0	1	0	n/a	n/a	0.0	0	0	0	FR3	2	R1154D
1317.877	1.932	1339522	PROB	1.897	n/a	n/a	-999	0	7	[2, 8, 8]	18	0	1	0	n/a	n/a	0.0	0	0	0	FR3	2	R1154D
1319.809	1.917	1341454	PROB	1.884	n/a	n/a	-999	0	7	[4, 3, 1]	8	0	1	0	n/a	n/a	0.0	0	0	0	FR3	2	R1154D
1321.726	2.912	1343371	PROB	2.912	n/a	n/a	-999	0	7	[7, 5, 9]	21	0	1	0	n/a	n/a	0.0	0	0	0	FR3	2	R1154D
1324.638	0.005	1346283	STOP	n/a	n/a	n/a	-999	0	7	[-999, -999, -999]	n/a	0	1	0	n/a	n/a	0.0	0	0	0	FR3	2	R1154D
1324.643	0.568	1346288	DISTRACT_END	n/a	n/a	n/a	-999	0	7	[0, 0, 0]	n/a	0	1	0	n/a	n/a	0.0	0	0	0	FR3	2	R1154D
1325.211	0.5	1346856	RETRIEVAL_ORIENT	n/a	n/a	n/a	-999	0	7	[0, 0, 0]	n/a	0	1	0	n/a	n/a	0.0	0	0	0	FR3	2	R1154D
1325.728	0.565	1347373	REC_START	n/a	n/a	n/a	-999	0	7	[0, 0, 0]	n/a	0	1	0	n/a	n/a	0.0	0	0	0	FR3	2	R1154D
1326.293	0.606	1347938	REC_WORD	0.565	n/a	PARK	3	1	7	[0, 0, 0]	n/a	0	1	0	n/a	n/a	0.0	0	0	0	FR3	2	R1154D
1326.899	1.622	1348544	REC_WORD	1.171	n/a	LAND	9	1	7	[0, 0, 0]	n/a	0	1	0	n/a	n/a	0.0	0	0	0	FR3	2	R1154D
1328.521	1.496	1350166	REC_WORD	2.793	n/a	FOG	7	1	7	[0, 0, 0]	n/a	0	1	0	n/a	n/a	0.0	0	0	0	FR3	2	R1154D
1330.017	8.454	1351662	REC_WORD	4.289	n/a	RAIN	-999	0	7	[0, 0, 0]	n/a	0	1	0	n/a	n/a	0.0	0	0	0	FR3	2	R1154D
1338.471	7.973	1360115	REC_WORD	12.743	n/a	SUN	11	1	7	[0, 0, 0]	n/a	0	1	0	n/a	n/a	0.0	0	0	0	FR3	2	R1154D
1346.444	9.294	1368088	REC_WORD	20.716	n/a	MOLE	1	1	7	[0, 0, 0]	n/a	0	1	0	n/a	n/a	0.0	0	0	0	FR3	2	R1154D
1355.738	4.346	1377381	REC_END	n/a	n/a	n/a	-999	0	7	[0, 0, 0]	n/a	0	1	0	n/a	n/a	0.0	0	0	0	FR3	2	R1154D
1360.084	0.5	1381727	TRIAL	n/a	n/a	n/a	-999	0	8	[0, 0, 0]	n/a	0	1	0	n/a	n/a	0.0	0	0	0	FR3	2	R1154D
1360.584	10.0	1382227	COUNTDOWN_START	n/a	n/a	n/a	-999	0	8	[0, 0, 0]	n/a	0	1	0	n/a	n/a	0.0	0	0	0	FR3	2	R1154D
1371.012	0.008	1392654	COUNTDOWN_END	n/a	n/a	n/a	-999	0	8	[0, 0, 0]	n/a	0	1	0	n/a	n/a	0.0	0	0	0	FR3	2	R1154D
1371.02	1.6	1392662	ORIENT	n/a	n/a	n/a	-999	0	8	[0, 0, 0]	n/a	0	1	0	n/a	n/a	0.0	0	0	0	FR3	2	R1154D
1372.636	2.083	1394278	ORIENT_OFF	n/a	n/a	n/a	-999	0	8	[0, 0, 0]	n/a	0	1	0	n/a	n/a	0.0	0	0	0	FR3	2	R1154D
1374.719	1.6	1396361	WORD	n/a	wordpools/wordpool.txt	AXE	1	0	8	[0, 0, 0]	n/a	0	1	0	n/a	n/a	0.0	0	0	0	FR3	2	R1154D
1376.336	0.967	1397978	WORD_OFF	n/a	n/a	AXE	1	0	8	[0, 0, 0]	n/a	0	1	0	n/a	n/a	0.0	0	0	0	FR3	2	R1154D
1377.303	1.6	1398945	WORD	n/a	wordpools/wordpool.txt	SHEEP	2	0	8	[0, 0, 0]	n/a	0	1	0	n/a	n/a	0.0	0	0	0	FR3	2	R1154D
1378.921	0.833	1400563	WORD_OFF	n/a	n/a	SHEEP	2	0	8	[0, 0, 0]	n/a	0	1	0	n/a	n/a	0.0	0	0	0	FR3	2	R1154D
1379.754	1.6	1401396	WORD	n/a	wordpools/wordpool.txt	DOCK	3	0	8	[0, 0, 0]	n/a	0	1	0	n/a	n/a	0.0	0	0	0	FR3	2	R1154D
1381.283	0.0	1402925	STIM_ON	n/a	n/a	DOCK	3	0	8	[0, 0, 0]	n/a	1	1	500	LTCG29	LTCG30	1000.0	200	100	300	FR3	2	R1154D
1381.371	0.412	1403013	WORD_OFF	n/a	n/a	DOCK	3	0	8	[0, 0, 0]	n/a	1	1	500	LTCG29	LTCG30	1000.0	200	100	300	FR3	2	R1154D
1381.783	0.355	1403425	STIM_OFF	n/a	n/a	n/a	3	0	8	[0, 0, 0]	n/a	0	1	500	LTCG29	LTCG30	1000.0	200	100	300	FR3	2	R1154D
1382.138	1.6	1403780	WORD	n/a	wordpools/wordpool.txt	STEAM	4	0	8	[0, 0, 0]	n/a	0	1	0	n/a	n/a	0.0	0	0	0	FR3	2	R1154D
1383.754	0.767	1405396	WORD_OFF	n/a	n/a	STEAM	4	0	8	[0, 0, 0]	n/a	0	1	0	n/a	n/a	0.0	0	0	0	FR3	2	R1154D
1384.521	1.6	1406163	WORD	n/a	wordpools/wordpool.txt	DOG	5	1	8	[0, 0, 0]	n/a	0	1	0	n/a	n/a	0.0	0	0	0	FR3	2	R1154D
1386.139	0.817	1407781	WORD_OFF	n/a	n/a	DOG	5	0	8	[0, 0, 0]	n/a	0	1	0	n/a	n/a	0.0	0	0	0	FR3	2	R1154D
1386.956	1.6	1408598	WORD	n/a	wordpools/wordpool.txt	RAIN	6	1	8	[0, 0, 0]	n/a	0	1	0	n/a	n/a	0.0	0	0	0	FR3	2	R1154D
1388.572	0.883	1410213	WORD_OFF	n/a	n/a	RAIN	6	0	8	[0, 0, 0]	n/a	0	1	0	n/a	n/a	0.0	0	0	0	FR3	2	R1154D
1389.455	1.6	1411096	WORD	n/a	wordpools/wordpool.txt	HILL	7	0	8	[0, 0, 0]	n/a	0	1	0	n/a	n/a	0.0	0	0	0	FR3	2	R1154D
1391.056	1.017	1412697	WORD_OFF	n/a	n/a	HILL	7	0	8	[0, 0, 0]	n/a	0	1	0	n/a	n/a	0.0	0	0	0	FR3	2	R1154D
1392.073	1.6	1413714	WORD	n/a	wordpools/wordpool.txt	BEE	8	0	8	[0, 0, 0]	n/a	0	1	0	n/a	n/a	0.0	0	0	0	FR3	2	R1154D
1393.689	1.001	1415330	WORD_OFF	n/a	n/a	BEE	8	0	8	[0, 0, 0]	n/a	0	1	0	n/a	n/a	0.0	0	0	0	FR3	2	R1154D
1394.69	1.6	1416331	WORD	n/a	wordpools/wordpool.txt	FOX	9	0	8	[0, 0, 0]	n/a	0	1	0	n/a	n/a	0.0	0	0	0	FR3	2	R1154D
1396.23	0.0	1417871	STIM_ON	n/a	n/a	FOX	9	0	8	[0, 0, 0]	n/a	1	1	500	LTCG29	LTCG30	1000.0	200	100	300	FR3	2	R1154D
1396.307	0.423	1417948	WORD_OFF	n/a	n/a	FOX	9	0	8	[0, 0, 0]	n/a	1	1	500	LTCG29	LTCG30	1000.0	200	100	300	FR3	2	R1154D
1396.73	0.344	1418371	STIM_OFF	n/a	n/a	n/a	9	0	8	[0, 0, 0]	n/a	0	1	500	LTCG29	LTCG30	1000.0	200	100	300	FR3	2	R1154D
1397.074	1.6	1418715	WORD	n/a	wordpools/wordpool.txt	GRASS	10	0	8	[0, 0, 0]	n/a	0	1	0	n/a	n/a	0.0	0	0	0	FR3	2	R1154D
1398.69	0.951	1420331	WORD_OFF	n/a	n/a	GRASS	10	0	8	[0, 0, 0]	n/a	0	1	0	n/a	n/a	0.0	0	0	0	FR3	2	R1154D
1399.641	1.6	1421282	WORD	n/a	wordpools/wordpool.txt	KEY	11	0	8	[0, 0, 0]	n/a	0	1	0	n/a	n/a	0.0	0	0	0	FR3	2	R1154D
1401.242	0.8	1422883	WORD_OFF	n/a	n/a	KEY	11	0	8	[0, 0, 0]	n/a	0	1	0	n/a	n/a	0.0	0	0	0	FR3	2	R1154D
1402.042	1.6	1423683	WORD	n/a	wordpools/wordpool.txt	SLIME	12	1	8	[0, 0, 0]	n/a	0	1	0	n/a	n/a	0.0	0	0	0	FR3	2	R1154D
1403.658	0.0	1425299	DISTRACT_START	n/a	n/a	n/a	-999	0	8	[0, 0, 0]	n/a	0	1	0	n/a	n/a	0.0	0	0	0	FR3	2	R1154D
1403.658	0.001	1425299	WORD_OFF	n/a	n/a	SLIME	12	0	8	[0, 0, 0]	n/a	0	1	0	n/a	n/a	0.0	0	0	0	FR3	2	R1154D
1403.659	0.016	1425300	START	n/a	n/a	n/a	-999	0	8	[-999, -999, -999]	n/a	0	1	0	n/a	n/a	0.0	0	0	0	FR3	2	R1154D
1403.675	2.783	1425316	PROB	2.755	n/a	n/a	-999	0	8	[7, 2, 8]	17	0	1	0	n/a	n/a	0.0	0	0	0	FR3	2	R1154D
1406.458	2.435	1428099	PROB	2.397	n/a	n/a	-999	0	8	[2, 4, 1]	7	0	1	0	n/a	n/a	0.0	0	0	0	FR3	2	R1154D
1408.893	1.583	1430533	PROB	1.553	n/a	n/a	-999	0	8	[2, 2, 1]	5	0	1	0	n/a	n/a	0.0	0	0	0	FR3	2	R1154D
1410.476	1.501	1432116	PROB	1.475	n/a	n/a	-999	0	8	[3, 9, 9]	21	0	1	0	n/a	n/a	0.0	0	0	0	FR3	2	R1154D
1411.977	1.884	1433617	PROB	1.853	n/a	n/a	-999	0	8	[9, 3, 4]	16	0	1	0	n/a	n/a	0.0	0	0	0	FR3	2	R1154D
1413.861	1.783	1435501	PROB	1.753	n/a	n/a	-999	0	8	[3, 7, 5]	15	0	1	0	n/a	n/a	0.0	0	0	0	FR3	2	R1154D
1415.644	3.535	1437284	PROB	3.499	n/a	n/a	-999	0	8	[7, 8, 8]	23	0	1	0	n/a	n/a	0.0	0	0	0	FR3	2	R1154D
1419.179	1.549	1440819	PROB	1.516	n/a	n/a	-999	0	8	[5, 9, 1]	15	0	1	0	n/a	n/a	0.0	0	0	0	FR3	2	R1154D
1420.728	5.03	1442368	PROB	5.03	n/a	n/a	-999	0	8	[8, 5, 7]	20	0	1	0	n/a	n/a	0.0	0	0	0	FR3	2	R1154D
1425.758	0.021	1447397	STOP	n/a	n/a	n/a	-999	0	8	[-999, -999, -999]	n/a	0	1	0	n/a	n/a	0.0	0	0	0	FR3	2	R1154D
1425.779	0.517	1447418	DISTRACT_END	n/a	n/a	n/a	-999	0	8	[0, 0, 0]	n/a	0	1	0	n/a	n/a	0.0	0	0	0	FR3	2	R1154D
1426.296	0.5	1447935	RETRIEVAL_ORIENT	n/a	n/a	n/a	-999	0	8	[0, 0, 0]	n/a	0	1	0	n/a	n/a	0.0	0	0	0	FR3	2	R1154D
1426.813	0.847	1448452	REC_START	n/a	n/a	n/a	-999	0	8	[0, 0, 0]	n/a	0	1	0	n/a	n/a	0.0	0	0	0	FR3	2	R1154D
1427.66	2.184	1449299	REC_WORD	0.847	n/a	DOG	5	1	8	[0, 0, 0]	n/a	0	1	0	n/a	n/a	0.0	0	0	0	FR3	2	R1154D
1429.844	4.042	1451483	REC_WORD	3.031	n/a	RAIN	6	1	8	[0, 0, 0]	n/a	0	1	0	n/a	n/a	0.0	0	0	0	FR3	2	R1154D
1433.886	3.906	1455525	REC_WORD	7.073	n/a	SLIME	12	1	8	[0, 0, 0]	n/a	0	1	0	n/a	n/a	0.0	0	0	0	FR3	2	R1154D
1437.792	1.785	1459431	REC_WORD	10.979	n/a	PARK	-999	0	8	[0, 0, 0]	n/a	0	1	0	n/a	n/a	0.0	0	0	0	FR3	2	R1154D
1439.577	1.0	1461216	REC_WORD_VV	12.764	n/a	<>	-999	0	8	[0, 0, 0]	n/a	0	1	0	n/a	n/a	0.0	0	0	0	FR3	2	R1154D
1440.577	5.15	1462216	REC_WORD_VV	13.764	n/a	<>	-999	0	8	[0, 0, 0]	n/a	0	1	0	n/a	n/a	0.0	0	0	0	FR3	2	R1154D
1445.727	6.824	1467365	REC_WORD	18.914	n/a	FOG	-999	0	8	[0, 0, 0]	n/a	0	1	0	n/a	n/a	0.0	0	0	0	FR3	2	R1154D
1452.551	4.272	1474189	REC_WORD	25.738	n/a	SLIME	12	1	8	[0, 0, 0]	n/a	0	1	0	n/a	n/a	0.0	0	0	0	FR3	2	R1154D
1456.823	4.413	1478461	REC_END	n/a	n/a	n/a	-999	0	8	[0, 0, 0]	n/a	0	1	0	n/a	n/a	0.0	0	0	0	FR3	2	R1154D
1461.236	0.5	1482874	TRIAL	n/a	n/a	n/a	-999	0	9	[0, 0, 0]	n/a	0	1	0	n/a	n/a	0.0	0	0	0	FR3	2	R1154D
1461.736	10.0	1483374	COUNTDOWN_START	n/a	n/a	n/a	-999	0	9	[0, 0, 0]	n/a	0	1	0	n/a	n/a	0.0	0	0	0	FR3	2	R1154D
1472.164	0.007	1493801	COUNTDOWN_END	n/a	n/a	n/a	-999	0	9	[0, 0, 0]	n/a	0	1	0	n/a	n/a	0.0	0	0	0	FR3	2	R1154D
1472.171	1.6	1493808	ORIENT	n/a	n/a	n/a	-999	0	9	[0, 0, 0]	n/a	0	1	0	n/a	n/a	0.0	0	0	0	FR3	2	R1154D
1473.787	1.951	1495424	ORIENT_OFF	n/a	n/a	n/a	-999	0	9	[0, 0, 0]	n/a	0	1	0	n/a	n/a	0.0	0	0	0	FR3	2	R1154D
1475.738	1.6	1497375	WORD	n/a	wordpools/wordpool.txt	SOAP	1	0	9	[0, 0, 0]	n/a	0	1	0	n/a	n/a	0.0	0	0	0	FR3	2	R1154D
1477.275	0.0	1498912	STIM_ON	n/a	n/a	SOAP	1	0	9	[0, 0, 0]	n/a	1	1	500	LTCG29	LTCG30	1000.0	200	100	300	FR3	2	R1154D
1477.355	0.42	1498992	WORD_OFF	n/a	n/a	SOAP	1	0	9	[0, 0, 0]	n/a	1	1	500	LTCG29	LTCG30	1000.0	200	100	300	FR3	2	R1154D
1477.775	0.58	1499412	STIM_OFF	n/a	n/a	n/a	1	0	9	[0, 0, 0]	n/a	0	1	500	LTCG29	LTCG30	1000.0	200	100	300	FR3	2	R1154D
1478.355	1.6	1499992	WORD	n/a	wordpools/wordpool.txt	RUG	2	1	9	[0, 0, 0]	n/a	0	1	0	n/a	n/a	0.0	0	0	0	FR3	2	R1154D
1479.956	0.9	1501593	WORD_OFF	n/a	n/a	RUG	2	0	9	[0, 0, 0]	n/a	0	1	0	n/a	n/a	0.0	0	0	0	FR3	2	R1154D
1480.856	1.6	1502493	WORD	n/a	wordpools/wordpool.txt	WHALE	3	1	9	[0, 0, 0]	n/a	0	1	0	n/a	n/a	0.0	0	0	0	FR3	2	R1154D
1482.472	0.984	1504108	WORD_OFF	n/a	n/a	WHALE	3	0	9	[0, 0, 0]	n/a	0	1	0	n/a	n/a	0.0	0	0	0	FR3	2	R1154D
1483.456	1.6	1505092	WORD	n/a	wordpools/wordpool.txt	SEA	4	1	9	[0, 0, 0]	n/a	0	1	0	n/a	n/a	0.0	0	0	0	FR3	2	R1154D
1485.074	0.867	1506710	WORD_OFF	n/a	n/a	SEA	4	0	9	[0, 0, 0]	n/a	0	1	0	n/a	n/a	0.0	0	0	0	FR3	2	R1154D
1485.941	1.6	1507577	WORD	n/a	wordpools/wordpool.txt	JET	5	0	9	[0, 0, 0]	n/a	0	1	0	n/a	n/a	0.0	0	0	0	FR3	2	R1154D
1487.557	0.983	1509193	WORD_OFF	n/a	n/a	JET	5	0	9	[0, 0, 0]	n/a	0	1	0	n/a	n/a	0.0	0	0	0	FR3	2	R1154D
1488.54	1.6	1510176	WORD	n/a	wordpools/wordpool.txt	DRUM	6	0	9	[0, 0, 0]	n/a	0	1	0	n/a	n/a	0.0	0	0	0	FR3	2	R1154D
1490.158	0.817	1511794	WORD_OFF	n/a	n/a	DRUM	6	0	9	[0, 0, 0]	n/a	0	1	0	n/a	n/a	0.0	0	0	0	FR3	2	R1154D
1490.975	1.6	1512611	WORD	n/a	wordpools/wordpool.txt	BROOM	7	1	9	[0, 0, 0]	n/a	0	1	0	n/a	n/a	0.0	0	0	0	FR3	2	R1154D
1492.506	0.0	1514142	STIM_ON	n/a	n/a	BROOM	7	1	9	[0, 0, 0]	n/a	1	1	500	LTCG29	LTCG30	1000.0	200	100	300	FR3	2	R1154D
1492.591	0.415	1514227	WORD_OFF	n/a	n/a	BROOM	7	0	9	[0, 0, 0]	n/a	1	1	500	LTCG29	LTCG30	1000.0	200	100	300	FR3	2	R1154D
1493.006	0.585	1514642	STIM_OFF	n/a	n/a	n/a	7	0	9	[0, 0, 0]	n/a	0	1	500	LTCG29	LTCG30	1000.0	200	100	300	FR3	2	R1154D
1493.591	1.6	1515227	WORD	n/a	wordpools/wordpool.txt	OAK	8	0	9	[0, 0, 0]	n/a	0	1	0	n/a	n/a	0.0	0	0	0	FR3	2	R1154D
1495.209	0.784	1516845	WORD_OFF	n/a	n/a	OAK	8	0	9	[0, 0, 0]	n/a	0	1	0	n/a	n/a	0.0	0	0	0	FR3	2	R1154D
1495.993	1.6	1517629	WORD	n/a	wordpools/wordpool.txt	TREE	9	0	9	[0, 0, 0]	n/a	0	1	0	n/a	n/a	0.0	0	0	0	FR3	2	R1154D
1497.608	0.851	1519244	WORD_OFF	n/a	n/a	TREE	9	0	9	[0, 0, 0]	n/a	0	1	0	n/a	n/a	0.0	0	0	0	FR3	2	R1154D
1498.459	1.6	1520095	WORD	n/a	wordpools/wordpool.txt	VEST	10	0	9	[0, 0, 0]	n/a	0	1	0	n/a	n/a	0.0	0	0	0	FR3	2	R1154D
1500.001	0.0	1521637	STIM_ON	n/a	n/a	VEST	10	0	9	[0, 0, 0]	n/a	1	1	500	LTCG29	LTCG30	1000.0	200	100	300	FR3	2	R1154D
1500.077	0.424	1521713	WORD_OFF	n/a	n/a	VEST	10	0	9	[0, 0, 0]	n/a	1	1	500	LTCG29	LTCG30	1000.0	200	100	300	FR3	2	R1154D
1500.501	0.459	1522136	STIM_OFF	n/a	n/a	n/a	10	0	9	[0, 0, 0]	n/a	0	1	500	LTCG29	LTCG30	1000.0	200	100	300	FR3	2	R1154D
1500.96	1.6	1522595	WORD	n/a	wordpools/wordpool.txt	DIME	11	0	9	[0, 0, 0]	n/a	0	1	0	n/a	n/a	0.0	0	0	0	FR3	2	R1154D
1502.576	0.767	1524211	WORD_OFF	n/a	n/a	DIME	11	0	9	[0, 0, 0]	n/a	0	1	0	n/a	n/a	0.0	0	0	0	FR3	2	R1154D
1503.343	1.6	1524978	WORD	n/a	wordpools/wordpool.txt	CHALK	12	0	9	[0, 0, 0]	n/a	0	1	0	n/a	n/a	0.0	0	0	0	FR3	2	R1154D
1504.879	0.0	1526514	STIM_ON	n/a	n/a	CHALK	12	0	9	[0, 0, 0]	n/a	1	1	500	LTCG29	LTCG30	1000.0	200	100	300	FR3	2	R1154D
1504.961	0.0	1526596	WORD_OFF	n/a	n/a	CHALK	12	0	9	[0, 0, 0]	n/a	1	1	500	LTCG29	LTCG30	1000.0	200	100	300	FR3	2	R1154D
1504.961	0.0	1526596	DISTRACT_START	n/a	n/a	n/a	-999	0	9	[0, 0, 0]	n/a	1	1	500	LTCG29	LTCG30	1000.0	200	100	300	FR3	2	R1154D
1504.961	0.017	1526596	START	n/a	n/a	n/a	-999	0	9	[-999, -999, -999]	n/a	0	1	0	n/a	n/a	0.0	0	0	0	FR3	2	R1154D
1504.978	0.401	1526613	PROB	2.18	n/a	n/a	-999	0	9	[1, 7, 2]	10	0	1	0	n/a	n/a	0.0	0	0	0	FR3	2	R1154D
1505.379	1.816	1527014	STIM_OFF	n/a	n/a	n/a	-999	0	9	[0, 0, 0]	n/a	0	1	500	LTCG29	LTCG30	1000.0	200	100	300	FR3	2	R1154D
1507.195	1.65	1528830	PROB	1.627	n/a	n/a	-999	0	9	[9, 5, 2]	16	0	1	0	n/a	n/a	0.0	0	0	0	FR3	2	R1154D
1508.845	1.849	1530480	PROB	1.825	n/a	n/a	-999	0	9	[2, 6, 2]	10	0	1	0	n/a	n/a	0.0	0	0	0	FR3	2	R1154D
1510.694	1.602	1532329	PROB	1.578	n/a	n/a	-999	0	9	[1, 6, 3]	10	0	1	0	n/a	n/a	0.0	0	0	0	FR3	2	R1154D
1512.296	1.95	1533931	PROB	1.918	n/a	n/a	-999	0	9	[9, 3, 4]	16	0	1	0	n/a	n/a	0.0	0	0	0	FR3	2	R1154D
1514.246	2.483	1535881	PROB	2.448	n/a	n/a	-999	0	9	[2, 1, 4]	7	0	1	0	n/a	n/a	0.0	0	0	0	FR3	2	R1154D
1516.729	1.717	1538364	PROB	1.692	n/a	n/a	-999	0	9	[5, 4, 6]	15	0	1	0	n/a	n/a	0.0	0	0	0	FR3	2	R1154D
1518.446	1.618	1540081	PROB	1.584	n/a	n/a	-999	0	9	[3, 8, 3]	14	0	1	0	n/a	n/a	0.0	0	0	0	FR3	2	R1154D
1520.064	1.416	1541698	PROB	1.389	n/a	n/a	-999	0	9	[1, 3, 1]	5	0	1	0	n/a	n/a	0.0	0	0	0	FR3	2	R1154D
1521.48	1.883	1543114	PROB	1.846	n/a	n/a	-999	0	9	[4, 8, 3]	15	0	1	0	n/a	n/a	0.0	0	0	0	FR3	2	R1154D
1523.363	2.86	1544997	PROB	2.86	n/a	n/a	-999	0	9	[2, 4, 9]	15	0	1	0	n/a	n/a	0.0	0	0	0	FR3	2	R1154D
1526.223	0.008	1547857	STOP	n/a	n/a	n/a	-999	0	9	[-999, -999, -999]	n/a	0	1	0	n/a	n/a	0.0	0	0	0	FR3	2	R1154D
1526.231	0.684	1547865	DISTRACT_END	n/a	n/a	n/a	-999	0	9	[0, 0, 0]	n/a	0	1	0	n/a	n/a	0.0	0	0	0	FR3	2	R1154D
1526.915	0.5	1548549	RETRIEVAL_ORIENT	n/a	n/a	n/a	-999	0	9	[0, 0, 0]	n/a	0	1	0	n/a	n/a	0.0	0	0	0	FR3	2	R1154D
1527.431	0.809	1549065	REC_START	n/a	n/a	n/a	-999	0	9	[0, 0, 0]	n/a	0	1	0	n/a	n/a	0.0	0	0	0	FR3	2	R1154D
1528.24	0.683	1549874	REC_WORD	0.809	n/a	WHALE	3	1	9	[0, 0, 0]	n/a	0	1	0	n/a	n/a	0.0	0	0	0	FR3	2	R1154D
1528.923	1.355	1550557	REC_WORD	1.492	n/a	SEA	4	1	9	[0, 0, 0]	n/a	0	1	0	n/a	n/a	0.0	0	0	0	FR3	2	R1154D
1530.278	5.942	1551912	REC_WORD	2.847	n/a	RUG	2	1	9	[0, 0, 0]	n/a	0	1	0	n/a	n/a	0.0	0	0	0	FR3	2	R1154D
1536.22	21.222	1557854	REC_WORD	8.789	n/a	BROOM	7	1	9	[0, 0, 0]	n/a	0	1	0	n/a	n/a	0.0	0	0	0	FR3	2	R1154D
1557.442	4.262	1579074	REC_END	n/a	n/a	n/a	-999	0	9	[0, 0, 0]	n/a	0	1	0	n/a	n/a	0.0	0	0	0	FR3	2	R1154D
1561.704	0.5	1583336	TRIAL	n/a	n/a	n/a	-999	0	10	[0, 0, 0]	n/a	0	0	0	n/a	n/a	0.0	0	0	0	FR3	2	R1154D
1562.204	10.0	1583836	COUNTDOWN_START	n/a	n/a	n/a	-999	0	10	[0, 0, 0]	n/a	0	0	0	n/a	n/a	0.0	0	0	0	FR3	2	R1154D
1572.632	0.007	1594264	COUNTDOWN_END	n/a	n/a	n/a	-999	0	10	[0, 0, 0]	n/a	0	0	0	n/a	n/a	0.0	0	0	0	FR3	2	R1154D
1572.639	1.6	1594271	ORIENT	n/a	n/a	n/a	-999	0	10	[0, 0, 0]	n/a	0	0	0	n/a	n/a	0.0	0	0	0	FR3	2	R1154D
1574.257	2.366	1595889	ORIENT_OFF	n/a	n/a	n/a	-999	0	10	[0, 0, 0]	n/a	0	0	0	n/a	n/a	0.0	0	0	0	FR3	2	R1154D
1576.623	1.6	1598254	WORD	n/a	wordpools/wordpool.txt	HAWK	1	1	10	[0, 0, 0]	n/a	0	0	0	n/a	n/a	0.0	0	0	0	FR3	2	R1154D
1578.241	0.767	1599872	WORD_OFF	n/a	n/a	HAWK	1	0	10	[0, 0, 0]	n/a	0	0	0	n/a	n/a	0.0	0	0	0	FR3	2	R1154D
1579.008	1.6	1600639	WORD	n/a	wordpools/wordpool.txt	BOAT	2	1	10	[0, 0, 0]	n/a	0	0	0	n/a	n/a	0.0	0	0	0	FR3	2	R1154D
1580.624	0.883	1602255	WORD_OFF	n/a	n/a	BOAT	2	0	10	[0, 0, 0]	n/a	0	0	0	n/a	n/a	0.0	0	0	0	FR3	2	R1154D
1581.507	1.6	1603138	WORD	n/a	wordpools/wordpool.txt	PALM	3	0	10	[0, 0, 0]	n/a	0	0	0	n/a	n/a	0.0	0	0	0	FR3	2	R1154D
1583.125	0.834	1604756	WORD_OFF	n/a	n/a	PALM	3	0	10	[0, 0, 0]	n/a	0	0	0	n/a	n/a	0.0	0	0	0	FR3	2	R1154D
1583.959	1.6	1605590	WORD	n/a	wordpools/wordpool.txt	KITE	4	0	10	[0, 0, 0]	n/a	0	0	0	n/a	n/a	0.0	0	0	0	FR3	2	R1154D
1585.575	0.866	1607206	WORD_OFF	n/a	n/a	KITE	4	0	10	[0, 0, 0]	n/a	0	0	0	n/a	n/a	0.0	0	0	0	FR3	2	R1154D
1586.441	1.6	1608072	WORD	n/a	wordpools/wordpool.txt	FORT	5	0	10	[0, 0, 0]	n/a	0	0	0	n/a	n/a	0.0	0	0	0	FR3	2	R1154D
1588.059	1.0	1609690	WORD_OFF	n/a	n/a	FORT	5	0	10	[0, 0, 0]	n/a	0	0	0	n/a	n/a	0.0	0	0	0	FR3	2	R1154D
1589.059	1.6	1610690	WORD	n/a	wordpools/wordpool.txt	CHEEK	6	1	10	[0, 0, 0]	n/a	0	0	0	n/a	n/a	0.0	0	0	0	FR3	2	R1154D
1590.675	0.784	1612306	WORD_OFF	n/a	n/a	CHEEK	6	0	10	[0, 0, 0]	n/a	0	0	0	n/a	n/a	0.0	0	0	0	FR3	2	R1154D
1591.459	1.6	1613090	WORD	n/a	wordpools/wordpool.txt	POOL	7	0	10	[0, 0, 0]	n/a	0	0	0	n/a	n/a	0.0	0	0	0	FR3	2	R1154D
1593.06	0.867	1614691	WORD_OFF	n/a	n/a	POOL	7	0	10	[0, 0, 0]	n/a	0	0	0	n/a	n/a	0.0	0	0	0	FR3	2	R1154D
1593.927	1.6	1615557	WORD	n/a	wordpools/wordpool.txt	FAN	8	0	10	[0, 0, 0]	n/a	0	0	0	n/a	n/a	0.0	0	0	0	FR3	2	R1154D
1595.543	0.817	1617173	WORD_OFF	n/a	n/a	FAN	8	0	10	[0, 0, 0]	n/a	0	0	0	n/a	n/a	0.0	0	0	0	FR3	2	R1154D
1596.36	1.6	1617990	WORD	n/a	wordpools/wordpool.txt	BOMB	9	0	10	[0, 0, 0]	n/a	0	0	0	n/a	n/a	0.0	0	0	0	FR3	2	R1154D
1597.978	0.867	1619608	WORD_OFF	n/a	n/a	BOMB	9	0	10	[0, 0, 0]	n/a	0	0	0	n/a	n/a	0.0	0	0	0	FR3	2	R1154D
1598.845	1.6	1620475	WORD	n/a	wordpools/wordpool.txt	SNAIL	10	0	10	[0, 0, 0]	n/a	0	0	0	n/a	n/a	0.0	0	0	0	FR3	2	R1154D
1600.461	0.9	1622091	WORD_OFF	n/a	n/a	SNAIL	10	0	10	[0, 0, 0]	n/a	0	0	0	n/a	n/a	0.0	0	0	0	FR3	2	R1154D
1601.361	1.6	1622991	WORD	n/a	wordpools/wordpool.txt	HAND	11	0	10	[0, 0, 0]	n/a	0	0	0	n/a	n/a	0.0	0	0	0	FR3	2	R1154D
1602.979	1.0	1624609	WORD_OFF	n/a	n/a	HAND	11	0	10	[0, 0, 0]	n/a	0	0	0	n/a	n/a	0.0	0	0	0	FR3	2	R1154D
1603.979	1.6	1625609	WORD	n/a	wordpools/wordpool.txt	SEAT	12	1	10	[0, 0, 0]	n/a	0	0	0	n/a	n/a	0.0	0	0	0	FR3	2	R1154D
1605.595	0.0	1627225	WORD_OFF	n/a	n/a	SEAT	12	0	10	[0, 0, 0]	n/a	0	0	0	n/a	n/a	0.0	0	0	0	FR3	2	R1154D
1605.595	0.0	1627225	DISTRACT_START	n/a	n/a	n/a	-999	0	10	[0, 0, 0]	n/a	0	0	0	n/a	n/a	0.0	0	0	0	FR3	2	R1154D
1605.595	0.017	1627225	START	n/a	n/a	n/a	-999	0	10	[-999, -999, -999]	n/a	0	0	0	n/a	n/a	0.0	0	0	0	FR3	2	R1154D
1605.612	2.933	1627242	PROB	2.906	n/a	n/a	-999	0	10	[1, 4, 3]	8	0	0	0	n/a	n/a	0.0	0	0	0	FR3	2	R1154D
1608.545	3.168	1630175	PROB	3.133	n/a	n/a	-999	0	10	[7, 4, 5]	16	0	0	0	n/a	n/a	0.0	0	0	0	FR3	2	R1154D
1611.713	1.401	1633343	PROB	1.373	n/a	n/a	-999	0	10	[8, 5, 1]	14	0	0	0	n/a	n/a	0.0	0	0	0	FR3	2	R1154D
1613.114	1.834	1634743	PROB	1.804	n/a	n/a	-999	0	10	[1, 3, 4]	8	0	0	0	n/a	n/a	0.0	0	0	0	FR3	2	R1154D
1614.948	1.9	1636577	PROB	1.874	n/a	n/a	-999	0	10	[3, 9, 7]	19	0	0	0	n/a	n/a	0.0	0	0	0	FR3	2	R1154D
1616.848	2.466	1638477	PROB	2.431	n/a	n/a	-999	0	10	[5, 9, 5]	19	0	0	0	n/a	n/a	0.0	0	0	0	FR3	2	R1154D
1619.314	2.134	1640943	PROB	2.107	n/a	n/a	-999	0	10	[3, 9, 4]	16	0	0	0	n/a	n/a	0.0	0	0	0	FR3	2	R1154D
1621.448	1.551	1643077	PROB	1.527	n/a	n/a	-999	0	10	[8, 1, 3]	12	0	0	0	n/a	n/a	0.0	0	0	0	FR3	2	R1154D
1622.999	2.583	1644628	PROB	2.559	n/a	n/a	-999	0	10	[2, 5, 9]	16	0	0	0	n/a	n/a	0.0	0	0	0	FR3	2	R1154D
1625.582	1.553	1647211	PROB	1.553	n/a	n/a	-999	0	10	[7, 3, 3]	13	0	0	0	n/a	n/a	0.0	0	0	0	FR3	2	R1154D
1627.135	0.015	1648764	STOP	n/a	n/a	n/a	-999	0	10	[-999, -999, -999]	n/a	0	0	0	n/a	n/a	0.0	0	0	0	FR3	2	R1154D
1627.15	0.532	1648779	DISTRACT_END	n/a	n/a	n/a	-999	0	10	[0, 0, 0]	n/a	0	0	0	n/a	n/a	0.0	0	0	0	FR3	2	R1154D
1627.682	0.5	1649311	RETRIEVAL_ORIENT	n/a	n/a	n/a	-999	0	10	[0, 0, 0]	n/a	0	0	0	n/a	n/a	0.0	0	0	0	FR3	2	R1154D
1628.201	1.157	1649830	REC_START	n/a	n/a	n/a	-999	0	10	[0, 0, 0]	n/a	0	0	0	n/a	n/a	0.0	0	0	0	FR3	2	R1154D
1629.358	0.613	1650987	REC_WORD	1.157	n/a	HAWK	1	1	10	[0, 0, 0]	n/a	0	0	0	n/a	n/a	0.0	0	0	0	FR3	2	R1154D
1629.971	0.735	1651600	REC_WORD	1.77	n/a	SEA	-999	0	10	[0, 0, 0]	n/a	0	0	0	n/a	n/a	0.0	0	0	0	FR3	2	R1154D
1630.706	2.161	1652334	REC_WORD	2.505	n/a	BOAT	2	1	10	[0, 0, 0]	n/a	0	0	0	n/a	n/a	0.0	0	0	0	FR3	2	R1154D
1632.867	4.367	1654495	REC_WORD	4.666	n/a	SEAT	12	1	10	[0, 0, 0]	n/a	0	0	0	n/a	n/a	0.0	0	0	0	FR3	2	R1154D
1637.234	12.867	1658862	REC_WORD	9.033	n/a	WHALE	-999	0	10	[0, 0, 0]	n/a	0	0	0	n/a	n/a	0.0	0	0	0	FR3	2	R1154D
1650.101	8.111	1671728	REC_WORD	21.9	n/a	CHEEK	6	1	10	[0, 0, 0]	n/a	0	0	0	n/a	n/a	0.0	0	0	0	FR3	2	R1154D
1658.212	4.143	1679839	REC_END	n/a	n/a	n/a	-999	0	10	[0, 0, 0]	n/a	0	0	0	n/a	n/a	0.0	0	0	0	FR3	2	R1154D
1662.355	0.5	1683982	TRIAL	n/a	n/a	n/a	-999	0	11	[0, 0, 0]	n/a	0	0	0	n/a	n/a	0.0	0	0	0	FR3	2	R1154D
1662.855	10.0	1684482	COUNTDOWN_START	n/a	n/a	n/a	-999	0	11	[0, 0, 0]	n/a	0	0	0	n/a	n/a	0.0	0	0	0	FR3	2	R1154D
1673.283	0.009	1694909	COUNTDOWN_END	n/a	n/a	n/a	-999	0	11	[0, 0, 0]	n/a	0	0	0	n/a	n/a	0.0	0	0	0	FR3	2	R1154D
1673.292	1.6	1694918	ORIENT	n/a	n/a	n/a	-999	0	11	[0, 0, 0]	n/a	0	0	0	n/a	n/a	0.0	0	0	0	FR3	2	R1154D
1674.909	2.183	1696535	ORIENT_OFF	n/a	n/a	n/a	-999	0	11	[0, 0, 0]	n/a	0	0	0	n/a	n/a	0.0	0	0	0	FR3	2	R1154D
1677.092	1.6	1698718	WORD	n/a	wordpools/wordpool.txt	WOOD	1	1	11	[0, 0, 0]	n/a	0	0	0	n/a	n/a	0.0	0	0	0	FR3	2	R1154D
1678.708	0.934	1700334	WORD_OFF	n/a	n/a	WOOD	1	0	11	[0, 0, 0]	n/a	0	0	0	n/a	n/a	0.0	0	0	0	FR3	2	R1154D
1679.642	1.6	1701268	WORD	n/a	wordpools/wordpool.txt	WORM	2	1	11	[0, 0, 0]	n/a	0	0	0	n/a	n/a	0.0	0	0	0	FR3	2	R1154D
1681.26	0.8	1702886	WORD_OFF	n/a	n/a	WORM	2	0	11	[0, 0, 0]	n/a	0	0	0	n/a	n/a	0.0	0	0	0	FR3	2	R1154D
1682.06	1.6	1703686	WORD	n/a	wordpools/wordpool.txt	HOOK	3	0	11	[0, 0, 0]	n/a	0	0	0	n/a	n/a	0.0	0	0	0	FR3	2	R1154D
1683.676	0.85	1705302	WORD_OFF	n/a	n/a	HOOK	3	0	11	[0, 0, 0]	n/a	0	0	0	n/a	n/a	0.0	0	0	0	FR3	2	R1154D
1684.526	1.6	1706152	WORD	n/a	wordpools/wordpool.txt	WEED	4	0	11	[0, 0, 0]	n/a	0	0	0	n/a	n/a	0.0	0	0	0	FR3	2	R1154D
1686.127	0.8	1707753	WORD_OFF	n/a	n/a	WEED	4	0	11	[0, 0, 0]	n/a	0	0	0	n/a	n/a	0.0	0	0	0	FR3	2	R1154D
1686.927	1.6	1708552	WORD	n/a	wordpools/wordpool.txt	RAT	5	0	11	[0, 0, 0]	n/a	0	0	0	n/a	n/a	0.0	0	0	0	FR3	2	R1154D
1688.543	1.001	1710168	WORD_OFF	n/a	n/a	RAT	5	0	11	[0, 0, 0]	n/a	0	0	0	n/a	n/a	0.0	0	0	0	FR3	2	R1154D
1689.544	1.6	1711169	WORD	n/a	wordpools/wordpool.txt	SHIRT	6	0	11	[0, 0, 0]	n/a	0	0	0	n/a	n/a	0.0	0	0	0	FR3	2	R1154D
1691.162	0.883	1712787	WORD_OFF	n/a	n/a	SHIRT	6	0	11	[0, 0, 0]	n/a	0	0	0	n/a	n/a	0.0	0	0	0	FR3	2	R1154D
1692.045	1.6	1713670	WORD	n/a	wordpools/wordpool.txt	HAT	7	0	11	[0, 0, 0]	n/a	0	0	0	n/a	n/a	0.0	0	0	0	FR3	2	R1154D
1693.661	0.8	1715286	WORD_OFF	n/a	n/a	HAT	7	0	11	[0, 0, 0]	n/a	0	0	0	n/a	n/a	0.0	0	0	0	FR3	2	R1154D
1694.461	1.6	1716086	WORD	n/a	wordpools/wordpool.txt	BUSH	8	0	11	[0, 0, 0]	n/a	0	0	0	n/a	n/a	0.0	0	0	0	FR3	2	R1154D
1696.079	0.8	1717704	WORD_OFF	n/a	n/a	BUSH	8	0	11	[0, 0, 0]	n/a	0	0	0	n/a	n/a	0.0	0	0	0	FR3	2	R1154D
1696.879	1.6	1718504	WORD	n/a	wordpools/wordpool.txt	CLOUD	9	1	11	[0, 0, 0]	n/a	0	0	0	n/a	n/a	0.0	0	0	0	FR3	2	R1154D
1698.495	0.95	1720120	WORD_OFF	n/a	n/a	CLOUD	9	0	11	[0, 0, 0]	n/a	0	0	0	n/a	n/a	0.0	0	0	0	FR3	2	R1154D
1699.445	1.6	1721070	WORD	n/a	wordpools/wordpool.txt	PEARL	10	0	11	[0, 0, 0]	n/a	0	0	0	n/a	n/a	0.0	0	0	0	FR3	2	R1154D
1701.063	0.817	1722688	WORD_OFF	n/a	n/a	PEARL	10	0	11	[0, 0, 0]	n/a	0	0	0	n/a	n/a	0.0	0	0	0	FR3	2	R1154D
1701.88	1.6	1723505	WORD	n/a	wordpools/wordpool.txt	SMILE	11	0	11	[0, 0, 0]	n/a	0	0	0	n/a	n/a	0.0	0	0	0	FR3	2	R1154D
1703.496	0.834	1725121	WORD_OFF	n/a	n/a	SMILE	11	0	11	[0, 0, 0]	n/a	0	0	0	n/a	n/a	0.0	0	0	0	FR3	2	R1154D
1704.33	1.6	1725955	WORD	n/a	wordpools/wordpool.txt	DESK	12	0	11	[0, 0, 0]	n/a	0	0	0	n/a	n/a	0.0	0	0	0	FR3	2	R1154D
1705.947	0.0	1727571	DISTRACT_START	n/a	n/a	n/a	-999	0	11	[0, 0, 0]	n/a	0	0	0	n/a	n/a	0.0	0	0	0	FR3	2	R1154D
1705.947	0.001	1727571	WORD_OFF	n/a	n/a	DESK	12	0	11	[0, 0, 0]	n/a	0	0	0	n/a	n/a	0.0	0	0	0	FR3	2	R1154D
1705.948	0.016	1727572	START	n/a	n/a	n/a	-999	0	11	[-999, -999, -999]	n/a	0	0	0	n/a	n/a	0.0	0	0	0	FR3	2	R1154D
1705.964	2.366	1727588	PROB	2.33	n/a	n/a	-999	0	11	[2, 5, 3]	10	0	0	0	n/a	n/a	0.0	0	0	0	FR3	2	R1154D
1708.33	4.602	1729954	PROB	4.565	n/a	n/a	-999	0	11	[6, 9, 6]	21	0	0	0	n/a	n/a	0.0	0	0	0	FR3	2	R1154D
1712.932	2.616	1734556	PROB	2.585	n/a	n/a	-999	0	11	[4, 2, 3]	9	0	0	0	n/a	n/a	0.0	0	0	0	FR3	2	R1154D
1715.548	1.901	1737172	PROB	1.866	n/a	n/a	-999	0	11	[9, 3, 4]	16	0	0	0	n/a	n/a	0.0	0	0	0	FR3	2	R1154D
1717.449	1.684	1739073	PROB	1.661	n/a	n/a	-999	0	11	[6, 1, 9]	16	0	0	0	n/a	n/a	0.0	0	0	0	FR3	2	R1154D
1719.133	2.333	1740757	PROB	2.297	n/a	n/a	-999	0	11	[4, 5, 8]	17	0	0	0	n/a	n/a	0.0	0	0	0	FR3	2	R1154D
1721.466	2.884	1743090	PROB	2.852	n/a	n/a	-999	0	11	[9, 8, 7]	24	0	0	0	n/a	n/a	0.0	0	0	0	FR3	2	R1154D
1724.35	2.105	1745973	PROB	2.105	n/a	n/a	-999	0	11	[1, 7, 8]	16	0	0	0	n/a	n/a	0.0	0	0	0	FR3	2	R1154D
1726.455	0.012	1748078	STOP	n/a	n/a	n/a	-999	0	11	[-999, -999, -999]	n/a	0	0	0	n/a	n/a	0.0	0	0	0	FR3	2	R1154D
1726.467	0.551	1748090	DISTRACT_END	n/a	n/a	n/a	-999	0	11	[0, 0, 0]	n/a	0	0	0	n/a	n/a	0.0	0	0	0	FR3	2	R1154D
1727.018	0.5	1748641	RETRIEVAL_ORIENT	n/a	n/a	n/a	-999	0	11	[0, 0, 0]	n/a	0	0	0	n/a	n/a	0.0	0	0	0	FR3	2	R1154D
1727.535	2.367	1749158	REC_START	n/a	n/a	n/a	-999	0	11	[0, 0, 0]	n/a	0	0	0	n/a	n/a	0.0	0	0	0	FR3	2	R1154D
1729.902	0.576	1751525	REC_WORD	2.367	n/a	WOOD	1	1	11	[0, 0, 0]	n/a	0	0	0	n/a	n/a	0.0	0	0	0	FR3	2	R1154D
1730.478	3.995	1752101	REC_WORD	2.943	n/a	WORM	2	1	11	[0, 0, 0]	n/a	0	0	0	n/a	n/a	0.0	0	0	0	FR3	2	R1154D
1734.473	23.072	1756096	REC_WORD	6.938	n/a	CLOUD	9	1	11	[0, 0, 0]	n/a	0	0	0	n/a	n/a	0.0	0	0	0	FR3	2	R1154D
1757.545	5.045	1779167	REC_END	n/a	n/a	n/a	-999	0	11	[0, 0, 0]	n/a	0	0	0	n/a	n/a	0.0	0	0	0	FR3	2	R1154D
1762.59	0.5	1784211	TRIAL	n/a	n/a	n/a	-999	0	12	[0, 0, 0]	n/a	0	1	0	n/a	n/a	0.0	0	0	0	FR3	2	R1154D
1763.09	10.0	1784711	COUNTDOWN_START	n/a	n/a	n/a	-999	0	12	[0, 0, 0]	n/a	0	1	0	n/a	n/a	0.0	0	0	0	FR3	2	R1154D
1773.518	0.008	1795139	COUNTDOWN_END	n/a	n/a	n/a	-999	0	12	[0, 0, 0]	n/a	0	1	0	n/a	n/a	0.0	0	0	0	FR3	2	R1154D
1773.526	1.6	1795147	ORIENT	n/a	n/a	n/a	-999	0	12	[0, 0, 0]	n/a	0	1	0	n/a	n/a	0.0	0	0	0	FR3	2	R1154D
1775.144	1.9	1796765	ORIENT_OFF	n/a	n/a	n/a	-999	0	12	[0, 0, 0]	n/a	0	1	0	n/a	n/a	0.0	0	0	0	FR3	2	R1154D
1777.044	1.6	1798665	WORD	n/a	wordpools/wordpool.txt	BED	1	0	12	[0, 0, 0]	n/a	0	1	0	n/a	n/a	0.0	0	0	0	FR3	2	R1154D
1778.66	1.017	1800281	WORD_OFF	n/a	n/a	BED	1	0	12	[0, 0, 0]	n/a	0	1	0	n/a	n/a	0.0	0	0	0	FR3	2	R1154D
1779.677	1.6	1801297	WORD	n/a	wordpools/wordpool.txt	ROOT	2	0	12	[0, 0, 0]	n/a	0	1	0	n/a	n/a	0.0	0	0	0	FR3	2	R1154D
1781.294	0.917	1802914	WORD_OFF	n/a	n/a	ROOT	2	0	12	[0, 0, 0]	n/a	0	1	0	n/a	n/a	0.0	0	0	0	FR3	2	R1154D
1782.211	1.6	1803831	WORD	n/a	wordpools/wordpool.txt	BANK	3	1	12	[0, 0, 0]	n/a	0	1	0	n/a	n/a	0.0	0	0	0	FR3	2	R1154D
1783.828	0.933	1805448	WORD_OFF	n/a	n/a	BANK	3	0	12	[0, 0, 0]	n/a	0	1	0	n/a	n/a	0.0	0	0	0	FR3	2	R1154D
1784.761	1.6	1806381	WORD	n/a	wordpools/wordpool.txt	SCHOOL	4	1	12	[0, 0, 0]	n/a	0	1	0	n/a	n/a	0.0	0	0	0	FR3	2	R1154D
1786.317	0.0	1807937	STIM_ON	n/a	n/a	SCHOOL	4	1	12	[0, 0, 0]	n/a	1	1	500	LTCG29	LTCG30	1000.0	200	100	300	FR3	2	R1154D
1786.378	0.439	1807998	WORD_OFF	n/a	n/a	SCHOOL	4	0	12	[0, 0, 0]	n/a	1	1	500	LTCG29	LTCG30	1000.0	200	100	300	FR3	2	R1154D
1786.817	0.578	1808437	STIM_OFF	n/a	n/a	n/a	4	0	12	[0, 0, 0]	n/a	0	1	500	LTCG29	LTCG30	1000.0	200	100	300	FR3	2	R1154D
1787.395	1.6	1809015	WORD	n/a	wordpools/wordpool.txt	LEAF	5	0	12	[0, 0, 0]	n/a	0	1	0	n/a	n/a	0.0	0	0	0	FR3	2	R1154D
1789.013	0.933	1810633	WORD_OFF	n/a	n/a	LEAF	5	0	12	[0, 0, 0]	n/a	0	1	0	n/a	n/a	0.0	0	0	0	FR3	2	R1154D
1789.946	1.6	1811566	WORD	n/a	wordpools/wordpool.txt	BAND	6	0	12	[0, 0, 0]	n/a	0	1	0	n/a	n/a	0.0	0	0	0	FR3	2	R1154D
1791.562	0.917	1813182	WORD_OFF	n/a	n/a	BAND	6	0	12	[0, 0, 0]	n/a	0	1	0	n/a	n/a	0.0	0	0	0	FR3	2	R1154D
1792.479	1.6	1814099	WORD	n/a	wordpools/wordpool.txt	TANK	7	0	12	[0, 0, 0]	n/a	0	1	0	n/a	n/a	0.0	0	0	0	FR3	2	R1154D
1794.08	0.884	1815700	WORD_OFF	n/a	n/a	TANK	7	0	12	[0, 0, 0]	n/a	0	1	0	n/a	n/a	0.0	0	0	0	FR3	2	R1154D
1794.964	1.6	1816584	WORD	n/a	wordpools/wordpool.txt	CUBE	8	0	12	[0, 0, 0]	n/a	0	1	0	n/a	n/a	0.0	0	0	0	FR3	2	R1154D
1796.58	0.867	1818200	WORD_OFF	n/a	n/a	CUBE	8	0	12	[0, 0, 0]	n/a	0	1	0	n/a	n/a	0.0	0	0	0	FR3	2	R1154D
1797.447	1.6	1819067	WORD	n/a	wordpools/wordpool.txt	MAZE	9	0	12	[0, 0, 0]	n/a	0	1	0	n/a	n/a	0.0	0	0	0	FR3	2	R1154D
1799.004	0.0	1820623	STIM_ON	n/a	n/a	MAZE	9	0	12	[0, 0, 0]	n/a	1	1	500	LTCG29	LTCG30	1000.0	200	100	300	FR3	2	R1154D
1799.065	0.44	1820684	WORD_OFF	n/a	n/a	MAZE	9	0	12	[0, 0, 0]	n/a	1	1	500	LTCG29	LTCG30	1000.0	200	100	300	FR3	2	R1154D
1799.505	0.543	1821124	STIM_OFF	n/a	n/a	n/a	9	0	12	[0, 0, 0]	n/a	0	1	500	LTCG29	LTCG30	1000.0	200	100	300	FR3	2	R1154D
1800.048	1.6	1821667	WORD	n/a	wordpools/wordpool.txt	SAIL	10	0	12	[0, 0, 0]	n/a	0	1	0	n/a	n/a	0.0	0	0	0	FR3	2	R1154D
1801.664	0.834	1823283	WORD_OFF	n/a	n/a	SAIL	10	0	12	[0, 0, 0]	n/a	0	1	0	n/a	n/a	0.0	0	0	0	FR3	2	R1154D
1802.498	1.6	1824117	WORD	n/a	wordpools/wordpool.txt	PEAR	11	1	12	[0, 0, 0]	n/a	0	1	0	n/a	n/a	0.0	0	0	0	FR3	2	R1154D
1804.061	0.0	1825680	STIM_ON	n/a	n/a	PEAR	11	1	12	[0, 0, 0]	n/a	1	1	500	LTCG29	LTCG30	1000.0	200	100	300	FR3	2	R1154D
1804.116	0.445	1825735	WORD_OFF	n/a	n/a	PEAR	11	0	12	[0, 0, 0]	n/a	1	1	500	LTCG29	LTCG30	1000.0	200	100	300	FR3	2	R1154D
1804.561	0.505	1826180	STIM_OFF	n/a	n/a	n/a	11	0	12	[0, 0, 0]	n/a	0	1	500	LTCG29	LTCG30	1000.0	200	100	300	FR3	2	R1154D
1805.066	1.6	1826685	WORD	n/a	wordpools/wordpool.txt	NOSE	12	0	12	[0, 0, 0]	n/a	0	1	0	n/a	n/a	0.0	0	0	0	FR3	2	R1154D
1806.682	0.0	1828301	WORD_OFF	n/a	n/a	NOSE	12	0	12	[0, 0, 0]	n/a	0	1	0	n/a	n/a	0.0	0	0	0	FR3	2	R1154D
1806.682	0.0	1828301	DISTRACT_START	n/a	n/a	n/a	-999	0	12	[0, 0, 0]	n/a	0	1	0	n/a	n/a	0.0	0	0	0	FR3	2	R1154D
1806.682	0.016	1828301	START	n/a	n/a	n/a	-999	0	12	[-999, -999, -999]	n/a	0	1	0	n/a	n/a	0.0	0	0	0	FR3	2	R1154D
1806.698	2.435	1828317	PROB	2.396	n/a	n/a	-999	0	12	[9, 1, 8]	18	0	1	0	n/a	n/a	0.0	0	0	0	FR3	2	R1154D
1809.133	2.183	1830752	PROB	2.154	n/a	n/a	-999	0	12	[3, 7, 6]	16	0	1	0	n/a	n/a	0.0	0	0	0	FR3	2	R1154D
1811.316	1.768	1832935	PROB	1.73	n/a	n/a	-999	0	12	[5, 5, 8]	18	0	1	0	n/a	n/a	0.0	0	0	0	FR3	2	R1154D
1813.084	2.15	1834703	PROB	2.115	n/a	n/a	-999	0	12	[2, 3, 1]	6	0	1	0	n/a	n/a	0.0	0	0	0	FR3	2	R1154D
1815.234	2.116	1836853	PROB	2.083	n/a	n/a	-999	0	12	[3, 8, 5]	16	0	1	0	n/a	n/a	0.0	0	0	0	FR3	2	R1154D
1817.35	2.251	1838968	PROB	2.223	n/a	n/a	-999	0	12	[8, 1, 9]	18	0	1	0	n/a	n/a	0.0	0	0	0	FR3	2	R1154D
1819.601	1.867	1841219	PROB	1.828	n/a	n/a	-999	0	12	[2, 8, 5]	15	0	1	0	n/a	n/a	0.0	0	0	0	FR3	2	R1154D
1821.468	2.0	1843086	PROB	1.969	n/a	n/a	-999	0	12	[4, 7, 1]	12	0	1	0	n/a	n/a	0.0	0	0	0	FR3	2	R1154D
1823.468	1.934	1845086	PROB	1.897	n/a	n/a	-999	0	12	[1, 7, 5]	13	0	1	0	n/a	n/a	0.0	0	0	0	FR3	2	R1154D
1825.402	2.989	1847020	PROB	2.989	n/a	n/a	-999	0	12	[5, 8, 9]	22	0	1	0	n/a	n/a	0.0	0	0	0	FR3	2	R1154D
1828.391	0.011	1850009	STOP	n/a	n/a	n/a	-999	0	12	[-999, -999, -999]	n/a	0	1	0	n/a	n/a	0.0	0	0	0	FR3	2	R1154D
1828.402	0.518	1850020	DISTRACT_END	n/a	n/a	n/a	-999	0	12	[0, 0, 0]	n/a	0	1	0	n/a	n/a	0.0	0	0	0	FR3	2	R1154D
1828.92	0.5	1850538	RETRIEVAL_ORIENT	n/a	n/a	n/a	-999	0	12	[0, 0, 0]	n/a	0	1	0	n/a	n/a	0.0	0	0	0	FR3	2	R1154D
1829.437	1.217	1851055	REC_START	n/a	n/a	n/a	-999	0	12	[0, 0, 0]	n/a	0	1	0	n/a	n/a	0.0	0	0	0	FR3	2	R1154D
1830.654	2.604	1852272	REC_WORD_VV	1.217	n/a	<>	-999	0	12	[0, 0, 0]	n/a	0	1	0	n/a	n/a	0.0	0	0	0	FR3	2	R1154D
1833.258	0.397	1854876	REC_WORD_VV	3.821	n/a	<>	-999	0	12	[0, 0, 0]	n/a	0	1	0	n/a	n/a	0.0	0	0	0	FR3	2	R1154D
1833.655	0.645	1855273	REC_WORD	4.218	n/a	BANK	3	1	12	[0, 0, 0]	n/a	0	1	0	n/a	n/a	0.0	0	0	0	FR3	2	R1154D
1834.3	11.035	1855918	REC_WORD	4.863	n/a	SCHOOL	4	1	12	[0, 0, 0]	n/a	0	1	0	n/a	n/a	0.0	0	0	0	FR3	2	R1154D
1845.335	14.112	1866952	REC_WORD	15.898	n/a	PEAR	11	1	12	[0, 0, 0]	n/a	0	1	0	n/a	n/a	0.0	0	0	0	FR3	2	R1154D
1859.447	4.929	1881063	REC_END	n/a	n/a	n/a	-999	0	12	[0, 0, 0]	n/a	0	1	0	n/a	n/a	0.0	0	0	0	FR3	2	R1154D
1864.376	0.5	1885992	TRIAL	n/a	n/a	n/a	-999	0	13	[0, 0, 0]	n/a	0	0	0	n/a	n/a	0.0	0	0	0	FR3	2	R1154D
1864.876	10.0	1886492	COUNTDOWN_START	n/a	n/a	n/a	-999	0	13	[0, 0, 0]	n/a	0	0	0	n/a	n/a	0.0	0	0	0	FR3	2	R1154D
1875.304	0.007	1896919	COUNTDOWN_END	n/a	n/a	n/a	-999	0	13	[0, 0, 0]	n/a	0	0	0	n/a	n/a	0.0	0	0	0	FR3	2	R1154D
1875.311	1.6	1896926	ORIENT	n/a	n/a	n/a	-999	0	13	[0, 0, 0]	n/a	0	0	0	n/a	n/a	0.0	0	0	0	FR3	2	R1154D
1876.929	1.882	1898544	ORIENT_OFF	n/a	n/a	n/a	-999	0	13	[0, 0, 0]	n/a	0	0	0	n/a	n/a	0.0	0	0	0	FR3	2	R1154D
1878.811	1.6	1900426	WORD	n/a	wordpools/wordpool.txt	BRUSH	1	0	13	[0, 0, 0]	n/a	0	0	0	n/a	n/a	0.0	0	0	0	FR3	2	R1154D
1880.428	0.835	1902043	WORD_OFF	n/a	n/a	BRUSH	1	0	13	[0, 0, 0]	n/a	0	0	0	n/a	n/a	0.0	0	0	0	FR3	2	R1154D
1881.263	1.6	1902878	WORD	n/a	wordpools/wordpool.txt	CRANE	2	1	13	[0, 0, 0]	n/a	0	0	0	n/a	n/a	0.0	0	0	0	FR3	2	R1154D
1882.88	0.849	1904495	WORD_OFF	n/a	n/a	CRANE	2	0	13	[0, 0, 0]	n/a	0	0	0	n/a	n/a	0.0	0	0	0	FR3	2	R1154D
1883.729	1.6	1905344	WORD	n/a	wordpools/wordpool.txt	PLATE	3	0	13	[0, 0, 0]	n/a	0	0	0	n/a	n/a	0.0	0	0	0	FR3	2	R1154D
1885.346	0.951	1906961	WORD_OFF	n/a	n/a	PLATE	3	0	13	[0, 0, 0]	n/a	0	0	0	n/a	n/a	0.0	0	0	0	FR3	2	R1154D
1886.297	1.6	1907912	WORD	n/a	wordpools/wordpool.txt	DUCK	4	1	13	[0, 0, 0]	n/a	0	0	0	n/a	n/a	0.0	0	0	0	FR3	2	R1154D
1887.914	0.849	1909529	WORD_OFF	n/a	n/a	DUCK	4	0	13	[0, 0, 0]	n/a	0	0	0	n/a	n/a	0.0	0	0	0	FR3	2	R1154D
1888.763	1.6	1910378	WORD	n/a	wordpools/wordpool.txt	ZOO	5	1	13	[0, 0, 0]	n/a	0	0	0	n/a	n/a	0.0	0	0	0	FR3	2	R1154D
1890.38	0.868	1911995	WORD_OFF	n/a	n/a	ZOO	5	0	13	[0, 0, 0]	n/a	0	0	0	n/a	n/a	0.0	0	0	0	FR3	2	R1154D
1891.248	1.6	1912862	WORD	n/a	wordpools/wordpool.txt	WHEEL	6	0	13	[0, 0, 0]	n/a	0	0	0	n/a	n/a	0.0	0	0	0	FR3	2	R1154D
1892.865	0.882	1914479	WORD_OFF	n/a	n/a	WHEEL	6	0	13	[0, 0, 0]	n/a	0	0	0	n/a	n/a	0.0	0	0	0	FR3	2	R1154D
1893.747	1.6	1915361	WORD	n/a	wordpools/wordpool.txt	STREET	7	0	13	[0, 0, 0]	n/a	0	0	0	n/a	n/a	0.0	0	0	0	FR3	2	R1154D
1895.364	0.967	1916978	WORD_OFF	n/a	n/a	STREET	7	0	13	[0, 0, 0]	n/a	0	0	0	n/a	n/a	0.0	0	0	0	FR3	2	R1154D
1896.331	1.6	1917945	WORD	n/a	wordpools/wordpool.txt	BLUSH	8	0	13	[0, 0, 0]	n/a	0	0	0	n/a	n/a	0.0	0	0	0	FR3	2	R1154D
1897.949	0.9	1919563	WORD_OFF	n/a	n/a	BLUSH	8	0	13	[0, 0, 0]	n/a	0	0	0	n/a	n/a	0.0	0	0	0	FR3	2	R1154D
1898.849	1.6	1920463	WORD	n/a	wordpools/wordpool.txt	DRESS	9	1	13	[0, 0, 0]	n/a	0	0	0	n/a	n/a	0.0	0	0	0	FR3	2	R1154D
1900.465	0.917	1922079	WORD_OFF	n/a	n/a	DRESS	9	0	13	[0, 0, 0]	n/a	0	0	0	n/a	n/a	0.0	0	0	0	FR3	2	R1154D
1901.382	1.6	1922996	WORD	n/a	wordpools/wordpool.txt	SIGN	10	0	13	[0, 0, 0]	n/a	0	0	0	n/a	n/a	0.0	0	0	0	FR3	2	R1154D
1903.0	0.867	1924614	WORD_OFF	n/a	n/a	SIGN	10	0	13	[0, 0, 0]	n/a	0	0	0	n/a	n/a	0.0	0	0	0	FR3	2	R1154D
1903.867	1.6	1925481	WORD	n/a	wordpools/wordpool.txt	SHEET	11	0	13	[0, 0, 0]	n/a	0	0	0	n/a	n/a	0.0	0	0	0	FR3	2	R1154D
1905.483	0.85	1927097	WORD_OFF	n/a	n/a	SHEET	11	0	13	[0, 0, 0]	n/a	0	0	0	n/a	n/a	0.0	0	0	0	FR3	2	R1154D
1906.333	1.6	1927947	WORD	n/a	wordpools/wordpool.txt	PIN	12	0	13	[0, 0, 0]	n/a	0	0	0	n/a	n/a	0.0	0	0	0	FR3	2	R1154D
1907.934	0.0	1929548	DISTRACT_START	n/a	n/a	n/a	-999	0	13	[0, 0, 0]	n/a	0	0	0	n/a	n/a	0.0	0	0	0	FR3	2	R1154D
1907.934	0.001	1929548	WORD_OFF	n/a	n/a	PIN	12	0	13	[0, 0, 0]	n/a	0	0	0	n/a	n/a	0.0	0	0	0	FR3	2	R1154D
1907.935	0.016	1929549	START	n/a	n/a	n/a	-999	0	13	[-999, -999, -999]	n/a	0	0	0	n/a	n/a	0.0	0	0	0	FR3	2	R1154D
1907.951	3.716	1929565	PROB	3.686	n/a	n/a	-999	0	13	[1, 9, 6]	16	0	0	0	n/a	n/a	0.0	0	0	0	FR3	2	R1154D
1911.667	1.618	1933280	PROB	1.587	n/a	n/a	-999	0	13	[3, 5, 3]	11	0	0	0	n/a	n/a	0.0	0	0	0	FR3	2	R1154D
1913.285	2.668	1934898	PROB	2.634	n/a	n/a	-999	0	13	[7, 4, 1]	11	0	0	0	n/a	n/a	0.0	0	0	0	FR3	2	R1154D
1915.953	2.067	1937566	PROB	2.038	n/a	n/a	-999	0	13	[1, 3, 3]	7	0	0	0	n/a	n/a	0.0	0	0	0	FR3	2	R1154D
1918.02	1.883	1939633	PROB	1.851	n/a	n/a	-999	0	13	[8, 4, 4]	16	0	0	0	n/a	n/a	0.0	0	0	0	FR3	2	R1154D
1919.903	2.101	1941516	PROB	2.063	n/a	n/a	-999	0	13	[9, 6, 8]	23	0	0	0	n/a	n/a	0.0	0	0	0	FR3	2	R1154D
1922.004	2.1	1943617	PROB	2.067	n/a	n/a	-999	0	13	[6, 7, 1]	14	0	0	0	n/a	n/a	0.0	0	0	0	FR3	2	R1154D
1924.104	2.65	1945717	PROB	2.622	n/a	n/a	-999	0	13	[9, 2, 9]	20	0	0	0	n/a	n/a	0.0	0	0	0	FR3	2	R1154D
1926.754	2.564	1948367	PROB	2.564	n/a	n/a	-999	0	13	[7, 4, 8]	19	0	0	0	n/a	n/a	0.0	0	0	0	FR3	2	R1154D
1929.318	0.019	1950930	STOP	n/a	n/a	n/a	-999	0	13	[-999, -999, -999]	n/a	0	0	0	n/a	n/a	0.0	0	0	0	FR3	2	R1154D
1929.337	0.568	1950949	DISTRACT_END	n/a	n/a	n/a	-999	0	13	[0, 0, 0]	n/a	0	0	0	n/a	n/a	0.0	0	0	0	FR3	2	R1154D
1929.905	0.5	1951517	RETRIEVAL_ORIENT	n/a	n/a	n/a	-999	0	13	[0, 0, 0]	n/a	0	0	0	n/a	n/a	0.0	0	0	0	FR3	2	R1154D
1930.422	0.708	1952034	REC_START	n/a	n/a	n/a	-999	0	13	[0, 0, 0]	n/a	0	0	0	n/a	n/a	0.0	0	0	0	FR3	2	R1154D
1931.13	0.82	1952742	REC_WORD	0.708	n/a	ZOO	5	1	13	[0, 0, 0]	n/a	0	0	0	n/a	n/a	0.0	0	0	0	FR3	2	R1154D
1931.95	3.4	1953562	REC_WORD	1.528	n/a	CRANE	2	1	13	[0, 0, 0]	n/a	0	0	0	n/a	n/a	0.0	0	0	0	FR3	2	R1154D
1935.35	8.913	1956962	REC_WORD	4.928	n/a	DUCK	4	1	13	[0, 0, 0]	n/a	0	0	0	n/a	n/a	0.0	0	0	0	FR3	2	R1154D
1944.263	4.16	1965875	REC_WORD	13.841	n/a	BUSH	-999	0	13	[0, 0, 0]	n/a	0	0	0	n/a	n/a	0.0	0	0	0	FR3	2	R1154D
1948.423	0.827	1970034	REC_WORD	18.001	n/a	DRESS	9	1	13	[0, 0, 0]	n/a	0	0	0	n/a	n/a	0.0	0	0	0	FR3	2	R1154D
1949.25	0.125	1970861	REC_WORD_VV	18.828	n/a	<>	-999	0	13	[0, 0, 0]	n/a	0	0	0	n/a	n/a	0.0	0	0	0	FR3	2	R1154D
1949.375	0.503	1970986	REC_WORD	18.953	n/a	DRESS	9	1	13	[0, 0, 0]	n/a	0	0	0	n/a	n/a	0.0	0	0	0	FR3	2	R1154D
1949.878	10.554	1971489	REC_WORD_VV	19.456	n/a	<>	-999	0	13	[0, 0, 0]	n/a	0	0	0	n/a	n/a	0.0	0	0	0	FR3	2	R1154D
1960.432	4.396	1982043	REC_END	n/a	n/a	n/a	-999	0	13	[0, 0, 0]	n/a	0	0	0	n/a	n/a	0.0	0	0	0	FR3	2	R1154D
1964.828	0.5	1986439	TRIAL	n/a	n/a	n/a	-999	0	14	[0, 0, 0]	n/a	0	0	0	n/a	n/a	0.0	0	0	0	FR3	2	R1154D
1965.328	10.0	1986939	COUNTDOWN_START	n/a	n/a	n/a	-999	0	14	[0, 0, 0]	n/a	0	0	0	n/a	n/a	0.0	0	0	0	FR3	2	R1154D
1975.756	0.007	1997366	COUNTDOWN_END	n/a	n/a	n/a	-999	0	14	[0, 0, 0]	n/a	0	0	0	n/a	n/a	0.0	0	0	0	FR3	2	R1154D
1975.763	1.6	1997373	ORIENT	n/a	n/a	n/a	-999	0	14	[0, 0, 0]	n/a	0	0	0	n/a	n/a	0.0	0	0	0	FR3	2	R1154D
1977.38	2.167	1998990	ORIENT_OFF	n/a	n/a	n/a	-999	0	14	[0, 0, 0]	n/a	0	0	0	n/a	n/a	0.0	0	0	0	FR3	2	R1154D
1979.547	1.6	2001157	WORD	n/a	wordpools/wordpool.txt	SWAMP	1	1	14	[0, 0, 0]	n/a	0	0	0	n/a	n/a	0.0	0	0	0	FR3	2	R1154D
1981.164	0.934	2002774	WORD_OFF	n/a	n/a	SWAMP	1	0	14	[0, 0, 0]	n/a	0	0	0	n/a	n/a	0.0	0	0	0	FR3	2	R1154D
1982.098	1.6	2003708	WORD	n/a	wordpools/wordpool.txt	SPOON	2	1	14	[0, 0, 0]	n/a	0	0	0	n/a	n/a	0.0	0	0	0	FR3	2	R1154D
1983.714	0.833	2005324	WORD_OFF	n/a	n/a	SPOON	2	0	14	[0, 0, 0]	n/a	0	0	0	n/a	n/a	0.0	0	0	0	FR3	2	R1154D
1984.547	1.6	2006156	WORD	n/a	wordpools/wordpool.txt	GLASS	3	0	14	[0, 0, 0]	n/a	0	0	0	n/a	n/a	0.0	0	0	0	FR3	2	R1154D
1986.149	0.783	2007758	WORD_OFF	n/a	n/a	GLASS	3	0	14	[0, 0, 0]	n/a	0	0	0	n/a	n/a	0.0	0	0	0	FR3	2	R1154D
1986.932	1.6	2008541	WORD	n/a	wordpools/wordpool.txt	JAR	4	0	14	[0, 0, 0]	n/a	0	0	0	n/a	n/a	0.0	0	0	0	FR3	2	R1154D
1988.548	0.884	2010157	WORD_OFF	n/a	n/a	JAR	4	0	14	[0, 0, 0]	n/a	0	0	0	n/a	n/a	0.0	0	0	0	FR3	2	R1154D
1989.432	1.6	2011041	WORD	n/a	wordpools/wordpool.txt	CART	5	0	14	[0, 0, 0]	n/a	0	0	0	n/a	n/a	0.0	0	0	0	FR3	2	R1154D
1991.05	0.983	2012659	WORD_OFF	n/a	n/a	CART	5	0	14	[0, 0, 0]	n/a	0	0	0	n/a	n/a	0.0	0	0	0	FR3	2	R1154D
1992.033	1.6	2013642	WORD	n/a	wordpools/wordpool.txt	CHIEF	6	0	14	[0, 0, 0]	n/a	0	0	0	n/a	n/a	0.0	0	0	0	FR3	2	R1154D
1993.649	0.917	2015258	WORD_OFF	n/a	n/a	CHIEF	6	0	14	[0, 0, 0]	n/a	0	0	0	n/a	n/a	0.0	0	0	0	FR3	2	R1154D
1994.566	1.6	2016175	WORD	n/a	wordpools/wordpool.txt	JUICE	7	0	14	[0, 0, 0]	n/a	0	0	0	n/a	n/a	0.0	0	0	0	FR3	2	R1154D
1996.184	0.817	2017793	WORD_OFF	n/a	n/a	JUICE	7	0	14	[0, 0, 0]	n/a	0	0	0	n/a	n/a	0.0	0	0	0	FR3	2	R1154D
1997.001	1.6	2018610	WORD	n/a	wordpools/wordpool.txt	SEAL	8	0	14	[0, 0, 0]	n/a	0	0	0	n/a	n/a	0.0	0	0	0	FR3	2	R1154D
1998.617	0.8	2020226	WORD_OFF	n/a	n/a	SEAL	8	0	14	[0, 0, 0]	n/a	0	0	0	n/a	n/a	0.0	0	0	0	FR3	2	R1154D
1999.417	1.6	2021026	WORD	n/a	wordpools/wordpool.txt	SOUP	9	1	14	[0, 0, 0]	n/a	0	0	0	n/a	n/a	0.0	0	0	0	FR3	2	R1154D
2001.035	1.0	2022644	WORD_OFF	n/a	n/a	SOUP	9	0	14	[0, 0, 0]	n/a	0	0	0	n/a	n/a	0.0	0	0	0	FR3	2	R1154D
2002.035	1.6	2023644	WORD	n/a	wordpools/wordpool.txt	STRING	10	1	14	[0, 0, 0]	n/a	0	0	0	n/a	n/a	0.0	0	0	0	FR3	2	R1154D
2003.651	0.917	2025259	WORD_OFF	n/a	n/a	STRING	10	0	14	[0, 0, 0]	n/a	0	0	0	n/a	n/a	0.0	0	0	0	FR3	2	R1154D
2004.568	1.6	2026176	WORD	n/a	wordpools/wordpool.txt	CALF	11	0	14	[0, 0, 0]	n/a	0	0	0	n/a	n/a	0.0	0	0	0	FR3	2	R1154D
2006.186	0.9	2027794	WORD_OFF	n/a	n/a	CALF	11	0	14	[0, 0, 0]	n/a	0	0	0	n/a	n/a	0.0	0	0	0	FR3	2	R1154D
2007.086	1.6	2028694	WORD	n/a	wordpools/wordpool.txt	SHARK	12	0	14	[0, 0, 0]	n/a	0	0	0	n/a	n/a	0.0	0	0	0	FR3	2	R1154D
2008.702	0.0	2030310	WORD_OFF	n/a	n/a	SHARK	12	0	14	[0, 0, 0]	n/a	0	0	0	n/a	n/a	0.0	0	0	0	FR3	2	R1154D
2008.702	0.001	2030310	DISTRACT_START	n/a	n/a	n/a	-999	0	14	[0, 0, 0]	n/a	0	0	0	n/a	n/a	0.0	0	0	0	FR3	2	R1154D
2008.703	0.016	2030311	START	n/a	n/a	n/a	-999	0	14	[-999, -999, -999]	n/a	0	0	0	n/a	n/a	0.0	0	0	0	FR3	2	R1154D
2008.719	3.118	2030327	PROB	3.086	n/a	n/a	-999	0	14	[4, 3, 8]	15	0	0	0	n/a	n/a	0.0	0	0	0	FR3	2	R1154D
2011.837	3.616	2033445	PROB	3.593	n/a	n/a	-999	0	14	[6, 8, 8]	24	0	0	0	n/a	n/a	0.0	0	0	0	FR3	2	R1154D
2015.453	1.501	2037061	PROB	1.474	n/a	n/a	-999	0	14	[7, 2, 3]	12	0	0	0	n/a	n/a	0.0	0	0	0	FR3	2	R1154D
2016.954	1.901	2038562	PROB	1.869	n/a	n/a	-999	0	14	[1, 3, 7]	11	0	0	0	n/a	n/a	0.0	0	0	0	FR3	2	R1154D
2018.855	2.017	2040463	PROB	1.983	n/a	n/a	-999	0	14	[7, 5, 5]	17	0	0	0	n/a	n/a	0.0	0	0	0	FR3	2	R1154D
2020.872	3.516	2042480	PROB	3.494	n/a	n/a	-999	0	14	[7, 5, 9]	21	0	0	0	n/a	n/a	0.0	0	0	0	FR3	2	R1154D
2024.388	1.585	2045995	PROB	1.554	n/a	n/a	-999	0	14	[8, 2, 3]	13	0	0	0	n/a	n/a	0.0	0	0	0	FR3	2	R1154D
2025.973	1.917	2047580	PROB	1.882	n/a	n/a	-999	0	14	[6, 1, 7]	14	0	0	0	n/a	n/a	0.0	0	0	0	FR3	2	R1154D
2027.89	2.156	2049497	PROB	2.156	n/a	n/a	-999	0	14	[8, 3, 3]	14	0	0	0	n/a	n/a	0.0	0	0	0	FR3	2	R1154D
2030.046	0.011	2051653	STOP	n/a	n/a	n/a	-999	0	14	[-999, -999, -999]	n/a	0	0	0	n/a	n/a	0.0	0	0	0	FR3	2	R1154D
2030.057	0.599	2051664	DISTRACT_END	n/a	n/a	n/a	-999	0	14	[0, 0, 0]	n/a	0	0	0	n/a	n/a	0.0	0	0	0	FR3	2	R1154D
2030.656	0.5	2052263	RETRIEVAL_ORIENT	n/a	n/a	n/a	-999	0	14	[0, 0, 0]	n/a	0	0	0	n/a	n/a	0.0	0	0	0	FR3	2	R1154D
2031.174	1.613	2052781	REC_START	n/a	n/a	n/a	-999	0	14	[0, 0, 0]	n/a	0	0	0	n/a	n/a	0.0	0	0	0	FR3	2	R1154D
2032.787	2.285	2054394	REC_WORD	1.613	n/a	SWAMP	1	1	14	[0, 0, 0]	n/a	0	0	0	n/a	n/a	0.0	0	0	0	FR3	2	R1154D
2035.072	0.674	2056679	REC_WORD	3.898	n/a	SPOON	2	1	14	[0, 0, 0]	n/a	0	0	0	n/a	n/a	0.0	0	0	0	FR3	2	R1154D
2035.746	6.077	2057353	REC_WORD	4.572	n/a	SOUP	9	1	14	[0, 0, 0]	n/a	0	0	0	n/a	n/a	0.0	0	0	0	FR3	2	R1154D
2041.823	7.896	2063429	REC_WORD	10.649	n/a	STRING	10	1	14	[0, 0, 0]	n/a	0	0	0	n/a	n/a	0.0	0	0	0	FR3	2	R1154D
2049.719	11.467	2071325	REC_WORD	18.545	n/a	SKUNK	-999	0	14	[0, 0, 0]	n/a	0	0	0	n/a	n/a	0.0	0	0	0	FR3	2	R1154D
2061.186	5.027	2082791	REC_END	n/a	n/a	n/a	-999	0	14	[0, 0, 0]	n/a	0	0	0	n/a	n/a	0.0	0	0	0	FR3	2	R1154D
2066.213	0.5	2087818	TRIAL	n/a	n/a	n/a	-999	0	15	[0, 0, 0]	n/a	0	0	0	n/a	n/a	0.0	0	0	0	FR3	2	R1154D
2066.713	10.0	2088318	COUNTDOWN_START	n/a	n/a	n/a	-999	0	15	[0, 0, 0]	n/a	0	0	0	n/a	n/a	0.0	0	0	0	FR3	2	R1154D
2077.141	0.008	2098746	COUNTDOWN_END	n/a	n/a	n/a	-999	0	15	[0, 0, 0]	n/a	0	0	0	n/a	n/a	0.0	0	0	0	FR3	2	R1154D
2077.149	1.6	2098754	ORIENT	n/a	n/a	n/a	-999	0	15	[0, 0, 0]	n/a	0	0	0	n/a	n/a	0.0	0	0	0	FR3	2	R1154D
2078.765	1.933	2100369	ORIENT_OFF	n/a	n/a	n/a	-999	0	15	[0, 0, 0]	n/a	0	0	0	n/a	n/a	0.0	0	0	0	FR3	2	R1154D
2080.698	1.6	2102302	WORD	n/a	wordpools/wordpool.txt	LAWN	1	0	15	[0, 0, 0]	n/a	0	0	0	n/a	n/a	0.0	0	0	0	FR3	2	R1154D
2082.315	0.935	2103919	WORD_OFF	n/a	n/a	LAWN	1	0	15	[0, 0, 0]	n/a	0	0	0	n/a	n/a	0.0	0	0	0	FR3	2	R1154D
2083.25	1.6	2104854	WORD	n/a	wordpools/wordpool.txt	LEG	2	1	15	[0, 0, 0]	n/a	0	0	0	n/a	n/a	0.0	0	0	0	FR3	2	R1154D
2084.867	0.766	2106471	WORD_OFF	n/a	n/a	LEG	2	0	15	[0, 0, 0]	n/a	0	0	0	n/a	n/a	0.0	0	0	0	FR3	2	R1154D
2085.633	1.6	2107237	WORD	n/a	wordpools/wordpool.txt	CAT	3	0	15	[0, 0, 0]	n/a	0	0	0	n/a	n/a	0.0	0	0	0	FR3	2	R1154D
2087.251	0.883	2108855	WORD_OFF	n/a	n/a	CAT	3	0	15	[0, 0, 0]	n/a	0	0	0	n/a	n/a	0.0	0	0	0	FR3	2	R1154D
2088.134	1.6	2109738	WORD	n/a	wordpools/wordpool.txt	FOOT	4	1	15	[0, 0, 0]	n/a	0	0	0	n/a	n/a	0.0	0	0	0	FR3	2	R1154D
2089.75	0.984	2111354	WORD_OFF	n/a	n/a	FOOT	4	0	15	[0, 0, 0]	n/a	0	0	0	n/a	n/a	0.0	0	0	0	FR3	2	R1154D
2090.734	1.6	2112338	WORD	n/a	wordpools/wordpool.txt	CAPE	5	1	15	[0, 0, 0]	n/a	0	0	0	n/a	n/a	0.0	0	0	0	FR3	2	R1154D
2092.351	0.951	2113955	WORD_OFF	n/a	n/a	CAPE	5	0	15	[0, 0, 0]	n/a	0	0	0	n/a	n/a	0.0	0	0	0	FR3	2	R1154D
2093.302	1.6	2114906	WORD	n/a	wordpools/wordpool.txt	BRICK	6	1	15	[0, 0, 0]	n/a	0	0	0	n/a	n/a	0.0	0	0	0	FR3	2	R1154D
2094.919	1.0	2116523	WORD_OFF	n/a	n/a	BRICK	6	0	15	[0, 0, 0]	n/a	0	0	0	n/a	n/a	0.0	0	0	0	FR3	2	R1154D
2095.919	1.6	2117523	WORD	n/a	wordpools/wordpool.txt	CROWN	7	0	15	[0, 0, 0]	n/a	0	0	0	n/a	n/a	0.0	0	0	0	FR3	2	R1154D
2097.535	0.767	2119138	WORD_OFF	n/a	n/a	CROWN	7	0	15	[0, 0, 0]	n/a	0	0	0	n/a	n/a	0.0	0	0	0	FR3	2	R1154D
2098.302	1.6	2119905	WORD	n/a	wordpools/wordpool.txt	RICE	8	1	15	[0, 0, 0]	n/a	0	0	0	n/a	n/a	0.0	0	0	0	FR3	2	R1154D
2099.92	0.815	2121523	WORD_OFF	n/a	n/a	RICE	8	0	15	[0, 0, 0]	n/a	0	0	0	n/a	n/a	0.0	0	0	0	FR3	2	R1154D
2100.735	1.6	2122338	WORD	n/a	wordpools/wordpool.txt	GEESE	9	0	15	[0, 0, 0]	n/a	0	0	0	n/a	n/a	0.0	0	0	0	FR3	2	R1154D
2102.352	0.835	2123955	WORD_OFF	n/a	n/a	GEESE	9	0	15	[0, 0, 0]	n/a	0	0	0	n/a	n/a	0.0	0	0	0	FR3	2	R1154D
2103.187	1.6	2124790	WORD	n/a	wordpools/wordpool.txt	CHIN	10	0	15	[0, 0, 0]	n/a	0	0	0	n/a	n/a	0.0	0	0	0	FR3	2	R1154D
2104.803	0.8	2126406	WORD_OFF	n/a	n/a	CHIN	10	0	15	[0, 0, 0]	n/a	0	0	0	n/a	n/a	0.0	0	0	0	FR3	2	R1154D
2105.603	1.6	2127206	WORD	n/a	wordpools/wordpool.txt	FROG	11	0	15	[0, 0, 0]	n/a	0	0	0	n/a	n/a	0.0	0	0	0	FR3	2	R1154D
2107.221	0.767	2128824	WORD_OFF	n/a	n/a	FROG	11	0	15	[0, 0, 0]	n/a	0	0	0	n/a	n/a	0.0	0	0	0	FR3	2	R1154D
2107.988	1.6	2129591	WORD	n/a	wordpools/wordpool.txt	TRAY	12	0	15	[0, 0, 0]	n/a	0	0	0	n/a	n/a	0.0	0	0	0	FR3	2	R1154D
2109.604	0.0	2131207	DISTRACT_START	n/a	n/a	n/a	-999	0	15	[0, 0, 0]	n/a	0	0	0	n/a	n/a	0.0	0	0	0	FR3	2	R1154D
2109.604	0.0	2131207	WORD_OFF	n/a	n/a	TRAY	12	0	15	[0, 0, 0]	n/a	0	0	0	n/a	n/a	0.0	0	0	0	FR3	2	R1154D
2109.604	0.016	2131207	START	n/a	n/a	n/a	-999	0	15	[-999, -999, -999]	n/a	0	0	0	n/a	n/a	0.0	0	0	0	FR3	2	R1154D
2109.62	2.418	2131223	PROB	2.394	n/a	n/a	-999	0	15	[2, 6, 4]	12	0	0	0	n/a	n/a	0.0	0	0	0	FR3	2	R1154D
2112.038	1.616	2133641	PROB	1.583	n/a	n/a	-999	0	15	[6, 7, 3]	16	0	0	0	n/a	n/a	0.0	0	0	0	FR3	2	R1154D
2113.654	1.385	2135257	PROB	1.36	n/a	n/a	-999	0	15	[9, 1, 4]	14	0	0	0	n/a	n/a	0.0	0	0	0	FR3	2	R1154D
2115.039	2.483	2136641	PROB	2.455	n/a	n/a	-999	0	15	[9, 4, 9]	22	0	0	0	n/a	n/a	0.0	0	0	0	FR3	2	R1154D
2117.522	1.551	2139124	PROB	1.524	n/a	n/a	-999	0	15	[4, 1, 2]	7	0	0	0	n/a	n/a	0.0	0	0	0	FR3	2	R1154D
2119.073	1.95	2140675	PROB	1.918	n/a	n/a	-999	0	15	[9, 6, 2]	17	0	0	0	n/a	n/a	0.0	0	0	0	FR3	2	R1154D
2121.023	2.201	2142625	PROB	2.168	n/a	n/a	-999	0	15	[3, 4, 2]	9	0	0	0	n/a	n/a	0.0	0	0	0	FR3	2	R1154D
2123.224	1.532	2144826	PROB	1.493	n/a	n/a	-999	0	15	[7, 2, 3]	12	0	0	0	n/a	n/a	0.0	0	0	0	FR3	2	R1154D
2124.756	2.051	2146358	PROB	2.026	n/a	n/a	-999	0	15	[7, 2, 8]	17	0	0	0	n/a	n/a	0.0	0	0	0	FR3	2	R1154D
2126.807	2.268	2148409	PROB	2.232	n/a	n/a	-999	0	15	[9, 3, 4]	16	0	0	0	n/a	n/a	0.0	0	0	0	FR3	2	R1154D
2129.075	1.827	2150677	PROB	1.827	n/a	n/a	-999	0	15	[9, 2, 1]	12	0	0	0	n/a	n/a	0.0	0	0	0	FR3	2	R1154D
2130.902	0.006	2152504	STOP	n/a	n/a	n/a	-999	0	15	[-999, -999, -999]	n/a	0	0	0	n/a	n/a	0.0	0	0	0	FR3	2	R1154D
2130.908	0.666	2152510	DISTRACT_END	n/a	n/a	n/a	-999	0	15	[0, 0, 0]	n/a	0	0	0	n/a	n/a	0.0	0	0	0	FR3	2	R1154D
2131.574	0.5	2153176	RETRIEVAL_ORIENT	n/a	n/a	n/a	-999	0	15	[0, 0, 0]	n/a	0	0	0	n/a	n/a	0.0	0	0	0	FR3	2	R1154D
2132.093	0.68	2153695	REC_START	n/a	n/a	n/a	-999	0	15	[0, 0, 0]	n/a	0	0	0	n/a	n/a	0.0	0	0	0	FR3	2	R1154D
2132.773	0.544	2154375	REC_WORD	0.68	n/a	LEG	2	1	15	[0, 0, 0]	n/a	0	0	0	n/a	n/a	0.0	0	0	0	FR3	2	R1154D
2133.317	0.823	2154918	REC_WORD	1.224	n/a	FOOT	4	1	15	[0, 0, 0]	n/a	0	0	0	n/a	n/a	0.0	0	0	0	FR3	2	R1154D
2134.14	3.716	2155741	REC_WORD	2.047	n/a	RICE	8	1	15	[0, 0, 0]	n/a	0	0	0	n/a	n/a	0.0	0	0	0	FR3	2	R1154D
2137.856	0.891	2159457	REC_WORD	5.763	n/a	BRICK	6	1	15	[0, 0, 0]	n/a	0	0	0	n/a	n/a	0.0	0	0	0	FR3	2	R1154D
2138.747	12.983	2160348	REC_WORD	6.654	n/a	CAPE	5	1	15	[0, 0, 0]	n/a	0	0	0	n/a	n/a	0.0	0	0	0	FR3	2	R1154D
2151.73	1.0	2173331	REC_WORD_VV	19.637	n/a	<>	-999	0	15	[0, 0, 0]	n/a	0	0	0	n/a	n/a	0.0	0	0	0	FR3	2	R1154D
2152.73	1.0	2174330	REC_WORD_VV	20.637	n/a	<>	-999	0	15	[0, 0, 0]	n/a	0	0	0	n/a	n/a	0.0	0	0	0	FR3	2	R1154D
2153.73	8.375	2175330	REC_WORD_VV	21.637	n/a	<>	-999	0	15	[0, 0, 0]	n/a	0	0	0	n/a	n/a	0.0	0	0	0	FR3	2	R1154D
2162.105	4.16	2183705	REC_END	n/a	n/a	n/a	-999	0	15	[0, 0, 0]	n/a	0	0	0	n/a	n/a	0.0	0	0	0	FR3	2	R1154D
2166.265	0.5	2187865	TRIAL	n/a	n/a	n/a	-999	0	16	[0, 0, 0]	n/a	0	0	0	n/a	n/a	0.0	0	0	0	FR3	2	R1154D
2166.765	10.0	2188365	COUNTDOWN_START	n/a	n/a	n/a	-999	0	16	[0, 0, 0]	n/a	0	0	0	n/a	n/a	0.0	0	0	0	FR3	2	R1154D
2177.193	0.007	2198792	COUNTDOWN_END	n/a	n/a	n/a	-999	0	16	[0, 0, 0]	n/a	0	0	0	n/a	n/a	0.0	0	0	0	FR3	2	R1154D
2177.2	1.6	2198799	ORIENT	n/a	n/a	n/a	-999	0	16	[0, 0, 0]	n/a	0	0	0	n/a	n/a	0.0	0	0	0	FR3	2	R1154D
2178.816	2.285	2200415	ORIENT_OFF	n/a	n/a	n/a	-999	0	16	[0, 0, 0]	n/a	0	0	0	n/a	n/a	0.0	0	0	0	FR3	2	R1154D
2181.101	1.6	2202700	WORD	n/a	wordpools/wordpool.txt	HEN	1	1	16	[0, 0, 0]	n/a	0	0	0	n/a	n/a	0.0	0	0	0	FR3	2	R1154D
2182.717	0.917	2204316	WORD_OFF	n/a	n/a	HEN	1	0	16	[0, 0, 0]	n/a	0	0	0	n/a	n/a	0.0	0	0	0	FR3	2	R1154D
2183.634	1.6	2205233	WORD	n/a	wordpools/wordpool.txt	MUG	2	0	16	[0, 0, 0]	n/a	0	0	0	n/a	n/a	0.0	0	0	0	FR3	2	R1154D
2185.252	0.917	2206851	WORD_OFF	n/a	n/a	MUG	2	0	16	[0, 0, 0]	n/a	0	0	0	n/a	n/a	0.0	0	0	0	FR3	2	R1154D
2186.169	1.6	2207768	WORD	n/a	wordpools/wordpool.txt	LAMP	3	0	16	[0, 0, 0]	n/a	0	0	0	n/a	n/a	0.0	0	0	0	FR3	2	R1154D
2187.785	0.933	2209384	WORD_OFF	n/a	n/a	LAMP	3	0	16	[0, 0, 0]	n/a	0	0	0	n/a	n/a	0.0	0	0	0	FR3	2	R1154D
2188.718	1.6	2210317	WORD	n/a	wordpools/wordpool.txt	PASTE	4	0	16	[0, 0, 0]	n/a	0	0	0	n/a	n/a	0.0	0	0	0	FR3	2	R1154D
2190.335	1.0	2211933	WORD_OFF	n/a	n/a	PASTE	4	0	16	[0, 0, 0]	n/a	0	0	0	n/a	n/a	0.0	0	0	0	FR3	2	R1154D
2191.335	1.6	2212933	WORD	n/a	wordpools/wordpool.txt	PURSE	5	0	16	[0, 0, 0]	n/a	0	0	0	n/a	n/a	0.0	0	0	0	FR3	2	R1154D
2192.936	0.783	2214534	WORD_OFF	n/a	n/a	PURSE	5	0	16	[0, 0, 0]	n/a	0	0	0	n/a	n/a	0.0	0	0	0	FR3	2	R1154D
2193.719	1.6	2215317	WORD	n/a	wordpools/wordpool.txt	SLEEVE	6	0	16	[0, 0, 0]	n/a	0	0	0	n/a	n/a	0.0	0	0	0	FR3	2	R1154D
2195.336	1.0	2216934	WORD_OFF	n/a	n/a	SLEEVE	6	0	16	[0, 0, 0]	n/a	0	0	0	n/a	n/a	0.0	0	0	0	FR3	2	R1154D
2196.336	1.6	2217934	WORD	n/a	wordpools/wordpool.txt	APE	7	0	16	[0, 0, 0]	n/a	0	0	0	n/a	n/a	0.0	0	0	0	FR3	2	R1154D
2197.954	0.783	2219552	WORD_OFF	n/a	n/a	APE	7	0	16	[0, 0, 0]	n/a	0	0	0	n/a	n/a	0.0	0	0	0	FR3	2	R1154D
2198.737	1.6	2220335	WORD	n/a	wordpools/wordpool.txt	BARN	8	1	16	[0, 0, 0]	n/a	0	0	0	n/a	n/a	0.0	0	0	0	FR3	2	R1154D
2200.354	0.817	2221952	WORD_OFF	n/a	n/a	BARN	8	0	16	[0, 0, 0]	n/a	0	0	0	n/a	n/a	0.0	0	0	0	FR3	2	R1154D
2201.171	1.6	2222769	WORD	n/a	wordpools/wordpool.txt	HOLE	9	1	16	[0, 0, 0]	n/a	0	0	0	n/a	n/a	0.0	0	0	0	FR3	2	R1154D
2202.787	0.801	2224385	WORD_OFF	n/a	n/a	HOLE	9	0	16	[0, 0, 0]	n/a	0	0	0	n/a	n/a	0.0	0	0	0	FR3	2	R1154D
2203.588	1.6	2225186	WORD	n/a	wordpools/wordpool.txt	NAIL	10	0	16	[0, 0, 0]	n/a	0	0	0	n/a	n/a	0.0	0	0	0	FR3	2	R1154D
2205.206	0.8	2226804	WORD_OFF	n/a	n/a	NAIL	10	0	16	[0, 0, 0]	n/a	0	0	0	n/a	n/a	0.0	0	0	0	FR3	2	R1154D
2206.006	1.6	2227604	WORD	n/a	wordpools/wordpool.txt	ROSE	11	0	16	[0, 0, 0]	n/a	0	0	0	n/a	n/a	0.0	0	0	0	FR3	2	R1154D
2207.622	0.9	2229220	WORD_OFF	n/a	n/a	ROSE	11	0	16	[0, 0, 0]	n/a	0	0	0	n/a	n/a	0.0	0	0	0	FR3	2	R1154D
2208.522	1.6	2230119	WORD	n/a	wordpools/wordpool.txt	STICK	12	0	16	[0, 0, 0]	n/a	0	0	0	n/a	n/a	0.0	0	0	0	FR3	2	R1154D
2210.14	0.0	2231737	WORD_OFF	n/a	n/a	STICK	12	0	16	[0, 0, 0]	n/a	0	0	0	n/a	n/a	0.0	0	0	0	FR3	2	R1154D
2210.14	0.0	2231737	DISTRACT_START	n/a	n/a	n/a	-999	0	16	[0, 0, 0]	n/a	0	0	0	n/a	n/a	0.0	0	0	0	FR3	2	R1154D
2210.14	0.016	2231737	START	n/a	n/a	n/a	-999	0	16	[-999, -999, -999]	n/a	0	0	0	n/a	n/a	0.0	0	0	0	FR3	2	R1154D
2210.156	2.45	2231753	PROB	2.417	n/a	n/a	-999	0	16	[1, 9, 8]	18	0	0	0	n/a	n/a	0.0	0	0	0	FR3	2	R1154D
2212.606	1.95	2234203	PROB	1.919	n/a	n/a	-999	0	16	[8, 3, 3]	14	0	0	0	n/a	n/a	0.0	0	0	0	FR3	2	R1154D
2214.556	3.934	2236153	PROB	3.898	n/a	n/a	-999	0	16	[9, 9, 5]	23	0	0	0	n/a	n/a	0.0	0	0	0	FR3	2	R1154D
2218.49	1.385	2240087	PROB	1.357	n/a	n/a	-999	0	16	[4, 7, 3]	14	0	0	0	n/a	n/a	0.0	0	0	0	FR3	2	R1154D
2219.875	2.816	2241472	PROB	2.786	n/a	n/a	-999	0	16	[6, 7, 8]	21	0	0	0	n/a	n/a	0.0	0	0	0	FR3	2	R1154D
2222.691	1.984	2244288	PROB	1.955	n/a	n/a	-999	0	16	[3, 6, 7]	16	0	0	0	n/a	n/a	0.0	0	0	0	FR3	2	R1154D
2224.675	1.568	2246272	PROB	1.532	n/a	n/a	-999	0	16	[1, 9, 6]	16	0	0	0	n/a	n/a	0.0	0	0	0	FR3	2	R1154D
2226.243	2.266	2247840	PROB	2.235	n/a	n/a	-999	0	16	[6, 2, 7]	15	0	0	0	n/a	n/a	0.0	0	0	0	FR3	2	R1154D
2228.509	1.518	2250105	PROB	1.49	n/a	n/a	-999	0	16	[3, 3, 6]	12	0	0	0	n/a	n/a	0.0	0	0	0	FR3	2	R1154D
2230.027	1.932	2251623	PROB	1.932	n/a	n/a	-999	0	16	[3, 5, 2]	10	0	0	0	n/a	n/a	0.0	0	0	0	FR3	2	R1154D
2231.959	0.018	2253555	STOP	n/a	n/a	n/a	-999	0	16	[-999, -999, -999]	n/a	0	0	0	n/a	n/a	0.0	0	0	0	FR3	2	R1154D
2231.977	0.649	2253573	DISTRACT_END	n/a	n/a	n/a	-999	0	16	[0, 0, 0]	n/a	0	0	0	n/a	n/a	0.0	0	0	0	FR3	2	R1154D
2232.626	0.5	2254222	RETRIEVAL_ORIENT	n/a	n/a	n/a	-999	0	16	[0, 0, 0]	n/a	0	0	0	n/a	n/a	0.0	0	0	0	FR3	2	R1154D
