onset	duration	sample	trial_type	response_time	stim_file	item_name	serialpos	recalled	list	test	answer	stimulation	stim_list	stim_duration	anode_label	cathode_label	amplitude	pulse_freq	n_pulses	pulse_width	experiment	session	subject
0.0	0.0	12031	INSTRUCT_START	n/a	n/a	n/a	-999	0	-999	[0, 0, 0]	n/a	0	0	0	n/a	n/a	0.0	0	0	0	FR3	0	R1217T
0.0	11.081	12031	INSTRUCT_END	n/a	n/a	n/a	-999	0	-999	[0, 0, 0]	n/a	0	0	0	n/a	n/a	0.0	0	0	0	FR3	0	R1217T
11.081	0.0	23111	SESS_START	n/a	n/a	n/a	-999	0	-999	[0, 0, 0]	n/a	0	0	0	n/a	n/a	0.0	0	0	0	FR3	0	R1217T
11.081	23.501	23111	MIC_TEST	n/a	n/a	n/a	-999	0	-999	[0, 0, 0]	n/a	0	0	0	n/a	n/a	0.0	0	0	0	FR3	0	R1217T
34.582	2.093	46611	PRACTICE_TRIAL	n/a	n/a	n/a	-999	0	-1	[0, 0, 0]	n/a	0	0	0	n/a	n/a	0.0	0	0	0	FR3	0	R1217T
36.675	10.0	48703	COUNTDOWN_START	n/a	n/a	n/a	-999	0	-1	[0, 0, 0]	n/a	0	0	0	n/a	n/a	0.0	0	0	0	FR3	0	R1217T
47.103	0.006	59131	COUNTDOWN_END	n/a	n/a	n/a	-999	0	-1	[0, 0, 0]	n/a	0	0	0	n/a	n/a	0.0	0	0	0	FR3	0	R1217T
47.109	1.6	59137	PRACTICE_ORIENT	n/a	n/a	n/a	-999	0	-1	[0, 0, 0]	n/a	0	0	0	n/a	n/a	0.0	0	0	0	FR3	0	R1217T
48.727	1.934	60755	PRACTICE_ORIENT_OFF	n/a	n/a	n/a	-999	0	-1	[0, 0, 0]	n/a	0	0	0	n/a	n/a	0.0	0	0	0	FR3	0	R1217T
50.661	1.6	62689	PRACTICE_WORD	n/a	n/a	RHINO	1	0	-1	[0, 0, 0]	n/a	0	0	0	n/a	n/a	0.0	0	0	0	FR3	0	R1217T
52.278	0.95	64305	PRACTICE_WORD_OFF	n/a	n/a	RHINO	-999	0	-1	[0, 0, 0]	n/a	0	0	0	n/a	n/a	0.0	0	0	0	FR3	0	R1217T
53.228	1.6	65255	PRACTICE_WORD	n/a	n/a	WAGON	2	0	-1	[0, 0, 0]	n/a	0	0	0	n/a	n/a	0.0	0	0	0	FR3	0	R1217T
54.845	0.883	66872	PRACTICE_WORD_OFF	n/a	n/a	WAGON	-999	0	-1	[0, 0, 0]	n/a	0	0	0	n/a	n/a	0.0	0	0	0	FR3	0	R1217T
55.728	1.6	67755	PRACTICE_WORD	n/a	n/a	WATCH	3	0	-1	[0, 0, 0]	n/a	0	0	0	n/a	n/a	0.0	0	0	0	FR3	0	R1217T
57.345	0.9	69372	PRACTICE_WORD_OFF	n/a	n/a	WATCH	-999	0	-1	[0, 0, 0]	n/a	0	0	0	n/a	n/a	0.0	0	0	0	FR3	0	R1217T
58.245	1.6	70272	PRACTICE_WORD	n/a	n/a	FLOOD	4	0	-1	[0, 0, 0]	n/a	0	0	0	n/a	n/a	0.0	0	0	0	FR3	0	R1217T
59.862	0.901	71889	PRACTICE_WORD_OFF	n/a	n/a	FLOOD	-999	0	-1	[0, 0, 0]	n/a	0	0	0	n/a	n/a	0.0	0	0	0	FR3	0	R1217T
60.763	1.6	72790	PRACTICE_WORD	n/a	n/a	COTTON	5	0	-1	[0, 0, 0]	n/a	0	0	0	n/a	n/a	0.0	0	0	0	FR3	0	R1217T
62.379	0.834	74406	PRACTICE_WORD_OFF	n/a	n/a	COTTON	-999	0	-1	[0, 0, 0]	n/a	0	0	0	n/a	n/a	0.0	0	0	0	FR3	0	R1217T
63.213	1.6	75240	PRACTICE_WORD	n/a	n/a	IRON	6	0	-1	[0, 0, 0]	n/a	0	0	0	n/a	n/a	0.0	0	0	0	FR3	0	R1217T
64.83	0.967	76857	PRACTICE_WORD_OFF	n/a	n/a	IRON	-999	0	-1	[0, 0, 0]	n/a	0	0	0	n/a	n/a	0.0	0	0	0	FR3	0	R1217T
65.797	1.6	77824	PRACTICE_WORD	n/a	n/a	CAMEL	7	0	-1	[0, 0, 0]	n/a	0	0	0	n/a	n/a	0.0	0	0	0	FR3	0	R1217T
67.414	0.833	79441	PRACTICE_WORD_OFF	n/a	n/a	CAMEL	-999	0	-1	[0, 0, 0]	n/a	0	0	0	n/a	n/a	0.0	0	0	0	FR3	0	R1217T
68.247	1.6	80273	PRACTICE_WORD	n/a	n/a	CHEST	8	0	-1	[0, 0, 0]	n/a	0	0	0	n/a	n/a	0.0	0	0	0	FR3	0	R1217T
69.864	0.784	81890	PRACTICE_WORD_OFF	n/a	n/a	CHEST	-999	0	-1	[0, 0, 0]	n/a	0	0	0	n/a	n/a	0.0	0	0	0	FR3	0	R1217T
70.648	1.6	82674	PRACTICE_WORD	n/a	n/a	ATTIC	9	0	-1	[0, 0, 0]	n/a	0	0	0	n/a	n/a	0.0	0	0	0	FR3	0	R1217T
72.265	0.882	84291	PRACTICE_WORD_OFF	n/a	n/a	ATTIC	-999	0	-1	[0, 0, 0]	n/a	0	0	0	n/a	n/a	0.0	0	0	0	FR3	0	R1217T
73.147	1.6	85173	PRACTICE_WORD	n/a	n/a	RING	10	0	-1	[0, 0, 0]	n/a	0	0	0	n/a	n/a	0.0	0	0	0	FR3	0	R1217T
74.765	1.0	86791	PRACTICE_WORD_OFF	n/a	n/a	RING	-999	0	-1	[0, 0, 0]	n/a	0	0	0	n/a	n/a	0.0	0	0	0	FR3	0	R1217T
75.765	1.6	87791	PRACTICE_WORD	n/a	n/a	BEAM	11	0	-1	[0, 0, 0]	n/a	0	0	0	n/a	n/a	0.0	0	0	0	FR3	0	R1217T
77.382	0.934	89408	PRACTICE_WORD_OFF	n/a	n/a	BEAM	-999	0	-1	[0, 0, 0]	n/a	0	0	0	n/a	n/a	0.0	0	0	0	FR3	0	R1217T
78.316	1.6	90342	PRACTICE_WORD	n/a	n/a	TONGUE	12	0	-1	[0, 0, 0]	n/a	0	0	0	n/a	n/a	0.0	0	0	0	FR3	0	R1217T
79.933	0.0	91959	PRACTICE_WORD_OFF	n/a	n/a	TONGUE	-999	0	-1	[0, 0, 0]	n/a	0	0	0	n/a	n/a	0.0	0	0	0	FR3	0	R1217T
79.933	0.0	91959	DISTRACT_START	n/a	n/a	n/a	-999	0	-1	[0, 0, 0]	n/a	0	0	0	n/a	n/a	0.0	0	0	0	FR3	0	R1217T
79.933	0.016	91959	START	n/a	n/a	n/a	-999	0	-1	[-999, -999, -999]	n/a	0	0	0	n/a	n/a	0.0	0	0	0	FR3	0	R1217T
79.949	4.401	91975	PROB	4.373	n/a	n/a	-999	0	-1	[6, 2, 1]	9	0	0	0	n/a	n/a	0.0	0	0	0	FR3	0	R1217T
84.35	4.301	96376	PROB	4.275	n/a	n/a	-999	0	-1	[9, 5, 4]	18	0	0	0	n/a	n/a	0.0	0	0	0	FR3	0	R1217T
88.651	3.734	100676	PROB	3.703	n/a	n/a	-999	0	-1	[6, 9, 1]	16	0	0	0	n/a	n/a	0.0	0	0	0	FR3	0	R1217T
92.385	4.201	104410	PROB	4.175	n/a	n/a	-999	0	-1	[8, 7, 6]	20	0	0	0	n/a	n/a	0.0	0	0	0	FR3	0	R1217T
96.586	3.742	108611	PROB	3.742	n/a	n/a	-999	0	-1	[5, 1, 5]	11	0	0	0	n/a	n/a	0.0	0	0	0	FR3	0	R1217T
100.328	0.008	112353	STOP	n/a	n/a	n/a	-999	0	-1	[-999, -999, -999]	n/a	0	0	0	n/a	n/a	0.0	0	0	0	FR3	0	R1217T
100.336	0.683	112361	DISTRACT_END	n/a	n/a	n/a	-999	0	-1	[0, 0, 0]	n/a	0	0	0	n/a	n/a	0.0	0	0	0	FR3	0	R1217T
101.019	0.5	113044	RETRIEVAL_ORIENT	n/a	n/a	n/a	-999	0	-1	[0, 0, 0]	n/a	0	0	0	n/a	n/a	0.0	0	0	0	FR3	0	R1217T
101.541	30.008	113565	PRACTICE_REC_START	n/a	n/a	n/a	-999	0	-1	[0, 0, 0]	n/a	0	0	0	n/a	n/a	0.0	0	0	0	FR3	0	R1217T
131.549	14.246	143572	PRACTICE_REC_END	n/a	n/a	n/a	-999	0	-1	[0, 0, 0]	n/a	0	0	0	n/a	n/a	0.0	0	0	0	FR3	0	R1217T
145.795	0.5	157817	TRIAL	n/a	n/a	n/a	-999	0	1	[0, 0, 0]	n/a	0	0	0	n/a	n/a	0.0	0	0	0	FR3	0	R1217T
146.295	10.0	158317	COUNTDOWN_START	n/a	n/a	n/a	-999	0	1	[0, 0, 0]	n/a	0	0	0	n/a	n/a	0.0	0	0	0	FR3	0	R1217T
156.723	0.007	168744	COUNTDOWN_END	n/a	n/a	n/a	-999	0	1	[0, 0, 0]	n/a	0	0	0	n/a	n/a	0.0	0	0	0	FR3	0	R1217T
156.73	1.6	168751	ORIENT	n/a	n/a	n/a	-999	0	1	[0, 0, 0]	n/a	0	0	0	n/a	n/a	0.0	0	0	0	FR3	0	R1217T
158.347	1.984	170368	ORIENT_OFF	n/a	n/a	n/a	-999	0	1	[0, 0, 0]	n/a	0	0	0	n/a	n/a	0.0	0	0	0	FR3	0	R1217T
160.331	1.6	172352	WORD	n/a	wordpools/wordpool.txt	PALM	1	1	1	[0, 0, 0]	n/a	0	0	0	n/a	n/a	0.0	0	0	0	FR3	0	R1217T
161.948	0.95	173969	WORD_OFF	n/a	n/a	PALM	1	0	1	[0, 0, 0]	n/a	0	0	0	n/a	n/a	0.0	0	0	0	FR3	0	R1217T
162.898	1.6	174919	WORD	n/a	wordpools/wordpool.txt	RUG	2	0	1	[0, 0, 0]	n/a	0	0	0	n/a	n/a	0.0	0	0	0	FR3	0	R1217T
164.515	0.833	176536	WORD_OFF	n/a	n/a	RUG	2	0	1	[0, 0, 0]	n/a	0	0	0	n/a	n/a	0.0	0	0	0	FR3	0	R1217T
165.348	1.6	177369	WORD	n/a	wordpools/wordpool.txt	FOX	3	1	1	[0, 0, 0]	n/a	0	0	0	n/a	n/a	0.0	0	0	0	FR3	0	R1217T
166.965	0.884	178986	WORD_OFF	n/a	n/a	FOX	3	0	1	[0, 0, 0]	n/a	0	0	0	n/a	n/a	0.0	0	0	0	FR3	0	R1217T
167.849	1.6	179870	WORD	n/a	wordpools/wordpool.txt	CROW	4	1	1	[0, 0, 0]	n/a	0	0	0	n/a	n/a	0.0	0	0	0	FR3	0	R1217T
169.466	0.866	181486	WORD_OFF	n/a	n/a	CROW	4	0	1	[0, 0, 0]	n/a	0	0	0	n/a	n/a	0.0	0	0	0	FR3	0	R1217T
170.332	1.6	182352	WORD	n/a	wordpools/wordpool.txt	DIME	5	0	1	[0, 0, 0]	n/a	0	0	0	n/a	n/a	0.0	0	0	0	FR3	0	R1217T
171.949	0.784	183969	WORD_OFF	n/a	n/a	DIME	5	0	1	[0, 0, 0]	n/a	0	0	0	n/a	n/a	0.0	0	0	0	FR3	0	R1217T
172.733	1.6	184753	WORD	n/a	wordpools/wordpool.txt	GLOVE	6	0	1	[0, 0, 0]	n/a	0	0	0	n/a	n/a	0.0	0	0	0	FR3	0	R1217T
174.35	0.917	186370	WORD_OFF	n/a	n/a	GLOVE	6	0	1	[0, 0, 0]	n/a	0	0	0	n/a	n/a	0.0	0	0	0	FR3	0	R1217T
175.267	1.6	187287	WORD	n/a	wordpools/wordpool.txt	KITE	7	0	1	[0, 0, 0]	n/a	0	0	0	n/a	n/a	0.0	0	0	0	FR3	0	R1217T
176.884	1.0	188904	WORD_OFF	n/a	n/a	KITE	7	0	1	[0, 0, 0]	n/a	0	0	0	n/a	n/a	0.0	0	0	0	FR3	0	R1217T
177.884	1.6	189904	WORD	n/a	wordpools/wordpool.txt	BRICK	8	0	1	[0, 0, 0]	n/a	0	0	0	n/a	n/a	0.0	0	0	0	FR3	0	R1217T
179.501	0.983	191521	WORD_OFF	n/a	n/a	BRICK	8	0	1	[0, 0, 0]	n/a	0	0	0	n/a	n/a	0.0	0	0	0	FR3	0	R1217T
180.484	1.6	192504	WORD	n/a	wordpools/wordpool.txt	PRINCE	9	1	1	[0, 0, 0]	n/a	0	0	0	n/a	n/a	0.0	0	0	0	FR3	0	R1217T
182.1	0.851	194120	WORD_OFF	n/a	n/a	PRINCE	9	0	1	[0, 0, 0]	n/a	0	0	0	n/a	n/a	0.0	0	0	0	FR3	0	R1217T
182.951	1.6	194971	WORD	n/a	wordpools/wordpool.txt	LAWN	10	0	1	[0, 0, 0]	n/a	0	0	0	n/a	n/a	0.0	0	0	0	FR3	0	R1217T
184.568	0.867	196588	WORD_OFF	n/a	n/a	LAWN	10	0	1	[0, 0, 0]	n/a	0	0	0	n/a	n/a	0.0	0	0	0	FR3	0	R1217T
185.435	1.6	197454	WORD	n/a	wordpools/wordpool.txt	SMILE	11	0	1	[0, 0, 0]	n/a	0	0	0	n/a	n/a	0.0	0	0	0	FR3	0	R1217T
187.051	0.801	199070	WORD_OFF	n/a	n/a	SMILE	11	0	1	[0, 0, 0]	n/a	0	0	0	n/a	n/a	0.0	0	0	0	FR3	0	R1217T
187.852	1.6	199871	WORD	n/a	wordpools/wordpool.txt	BAG	12	0	1	[0, 0, 0]	n/a	0	0	0	n/a	n/a	0.0	0	0	0	FR3	0	R1217T
189.469	0.0	201488	WORD_OFF	n/a	n/a	BAG	12	0	1	[0, 0, 0]	n/a	0	0	0	n/a	n/a	0.0	0	0	0	FR3	0	R1217T
189.469	0.001	201488	DISTRACT_START	n/a	n/a	n/a	-999	0	1	[0, 0, 0]	n/a	0	0	0	n/a	n/a	0.0	0	0	0	FR3	0	R1217T
189.47	0.016	201489	START	n/a	n/a	n/a	-999	0	1	[-999, -999, -999]	n/a	0	0	0	n/a	n/a	0.0	0	0	0	FR3	0	R1217T
189.486	4.351	201505	PROB	4.315	n/a	n/a	-999	0	1	[4, 7, 4]	15	0	0	0	n/a	n/a	0.0	0	0	0	FR3	0	R1217T
193.837	3.0	205856	PROB	2.972	n/a	n/a	-999	0	1	[5, 8, 6]	21	0	0	0	n/a	n/a	0.0	0	0	0	FR3	0	R1217T
196.837	4.784	208856	PROB	4.757	n/a	n/a	-999	0	1	[2, 5, 1]	8	0	0	0	n/a	n/a	0.0	0	0	0	FR3	0	R1217T
201.621	3.184	213639	PROB	3.157	n/a	n/a	-999	0	1	[2, 4, 5]	11	0	0	0	n/a	n/a	0.0	0	0	0	FR3	0	R1217T
204.805	4.2	216823	PROB	4.179	n/a	n/a	-999	0	1	[6, 8, 5]	19	0	0	0	n/a	n/a	0.0	0	0	0	FR3	0	R1217T
209.005	5.819	221023	PROB	5.819	n/a	n/a	-999	0	1	[6, 9, 7]	22	0	0	0	n/a	n/a	0.0	0	0	0	FR3	0	R1217T
214.824	0.017	226842	STOP	n/a	n/a	n/a	-999	0	1	[-999, -999, -999]	n/a	0	0	0	n/a	n/a	0.0	0	0	0	FR3	0	R1217T
214.841	0.616	226859	DISTRACT_END	n/a	n/a	n/a	-999	0	1	[0, 0, 0]	n/a	0	0	0	n/a	n/a	0.0	0	0	0	FR3	0	R1217T
215.457	0.5	227475	RETRIEVAL_ORIENT	n/a	n/a	n/a	-999	0	1	[0, 0, 0]	n/a	0	0	0	n/a	n/a	0.0	0	0	0	FR3	0	R1217T
215.975	3.225	227993	REC_START	n/a	n/a	n/a	-999	0	1	[0, 0, 0]	n/a	0	0	0	n/a	n/a	0.0	0	0	0	FR3	0	R1217T
219.2	0.972	231217	REC_WORD	3.225	n/a	PALM	1	1	1	[0, 0, 0]	n/a	0	0	0	n/a	n/a	0.0	0	0	0	FR3	0	R1217T
220.172	5.918	232189	REC_WORD	4.197	n/a	PRINCE	9	1	1	[0, 0, 0]	n/a	0	0	0	n/a	n/a	0.0	0	0	0	FR3	0	R1217T
226.09	1.078	238107	REC_WORD	10.115	n/a	WATCH	-999	0	1	[0, 0, 0]	n/a	0	0	0	n/a	n/a	0.0	0	0	0	FR3	0	R1217T
227.168	0.776	239185	REC_WORD	11.193	n/a	CROW	4	1	1	[0, 0, 0]	n/a	0	0	0	n/a	n/a	0.0	0	0	0	FR3	0	R1217T
227.944	7.131	239961	REC_WORD	11.969	n/a	FOX	3	1	1	[0, 0, 0]	n/a	0	0	0	n/a	n/a	0.0	0	0	0	FR3	0	R1217T
235.075	10.912	247091	REC_WORD	19.1	n/a	TOE	-999	0	1	[0, 0, 0]	n/a	0	0	0	n/a	n/a	0.0	0	0	0	FR3	0	R1217T
245.987	11.761	258003	REC_END	n/a	n/a	n/a	-999	0	1	[0, 0, 0]	n/a	0	0	0	n/a	n/a	0.0	0	0	0	FR3	0	R1217T
257.748	0.5	269763	TRIAL	n/a	n/a	n/a	-999	0	2	[0, 0, 0]	n/a	0	0	0	n/a	n/a	0.0	0	0	0	FR3	0	R1217T
258.248	10.0	270263	COUNTDOWN_START	n/a	n/a	n/a	-999	0	2	[0, 0, 0]	n/a	0	0	0	n/a	n/a	0.0	0	0	0	FR3	0	R1217T
268.676	0.008	280690	COUNTDOWN_END	n/a	n/a	n/a	-999	0	2	[0, 0, 0]	n/a	0	0	0	n/a	n/a	0.0	0	0	0	FR3	0	R1217T
268.684	1.6	280698	ORIENT	n/a	n/a	n/a	-999	0	2	[0, 0, 0]	n/a	0	0	0	n/a	n/a	0.0	0	0	0	FR3	0	R1217T
270.301	2.283	282315	ORIENT_OFF	n/a	n/a	n/a	-999	0	2	[0, 0, 0]	n/a	0	0	0	n/a	n/a	0.0	0	0	0	FR3	0	R1217T
272.584	1.6	284598	WORD	n/a	wordpools/wordpool.txt	FORK	1	1	2	[0, 0, 0]	n/a	0	0	0	n/a	n/a	0.0	0	0	0	FR3	0	R1217T
274.201	1.001	286215	WORD_OFF	n/a	n/a	FORK	1	0	2	[0, 0, 0]	n/a	0	0	0	n/a	n/a	0.0	0	0	0	FR3	0	R1217T
275.202	1.6	287216	WORD	n/a	wordpools/wordpool.txt	VAN	2	0	2	[0, 0, 0]	n/a	0	0	0	n/a	n/a	0.0	0	0	0	FR3	0	R1217T
276.819	0.766	288833	WORD_OFF	n/a	n/a	VAN	2	0	2	[0, 0, 0]	n/a	0	0	0	n/a	n/a	0.0	0	0	0	FR3	0	R1217T
277.585	1.6	289599	WORD	n/a	wordpools/wordpool.txt	ROSE	3	0	2	[0, 0, 0]	n/a	0	0	0	n/a	n/a	0.0	0	0	0	FR3	0	R1217T
279.202	0.767	291216	WORD_OFF	n/a	n/a	ROSE	3	0	2	[0, 0, 0]	n/a	0	0	0	n/a	n/a	0.0	0	0	0	FR3	0	R1217T
279.969	1.6	291983	WORD	n/a	wordpools/wordpool.txt	SHRIMP	4	1	2	[0, 0, 0]	n/a	0	0	0	n/a	n/a	0.0	0	0	0	FR3	0	R1217T
281.586	0.917	293600	WORD_OFF	n/a	n/a	SHRIMP	4	0	2	[0, 0, 0]	n/a	0	0	0	n/a	n/a	0.0	0	0	0	FR3	0	R1217T
282.503	1.6	294517	WORD	n/a	wordpools/wordpool.txt	EEL	5	1	2	[0, 0, 0]	n/a	0	0	0	n/a	n/a	0.0	0	0	0	FR3	0	R1217T
284.119	0.983	296133	WORD_OFF	n/a	n/a	EEL	5	0	2	[0, 0, 0]	n/a	0	0	0	n/a	n/a	0.0	0	0	0	FR3	0	R1217T
285.102	1.6	297115	WORD	n/a	wordpools/wordpool.txt	LEG	6	0	2	[0, 0, 0]	n/a	0	0	0	n/a	n/a	0.0	0	0	0	FR3	0	R1217T
286.72	0.917	298733	WORD_OFF	n/a	n/a	LEG	6	0	2	[0, 0, 0]	n/a	0	0	0	n/a	n/a	0.0	0	0	0	FR3	0	R1217T
287.637	1.6	299650	WORD	n/a	wordpools/wordpool.txt	BARN	7	1	2	[0, 0, 0]	n/a	0	0	0	n/a	n/a	0.0	0	0	0	FR3	0	R1217T
289.254	0.833	301267	WORD_OFF	n/a	n/a	BARN	7	0	2	[0, 0, 0]	n/a	0	0	0	n/a	n/a	0.0	0	0	0	FR3	0	R1217T
290.087	1.6	302100	WORD	n/a	wordpools/wordpool.txt	STOVE	8	0	2	[0, 0, 0]	n/a	0	0	0	n/a	n/a	0.0	0	0	0	FR3	0	R1217T
291.705	0.816	303718	WORD_OFF	n/a	n/a	STOVE	8	0	2	[0, 0, 0]	n/a	0	0	0	n/a	n/a	0.0	0	0	0	FR3	0	R1217T
292.521	1.6	304534	WORD	n/a	wordpools/wordpool.txt	CROWN	9	0	2	[0, 0, 0]	n/a	0	0	0	n/a	n/a	0.0	0	0	0	FR3	0	R1217T
294.137	0.867	306150	WORD_OFF	n/a	n/a	CROWN	9	0	2	[0, 0, 0]	n/a	0	0	0	n/a	n/a	0.0	0	0	0	FR3	0	R1217T
295.004	1.6	307017	WORD	n/a	wordpools/wordpool.txt	BOWL	10	0	2	[0, 0, 0]	n/a	0	0	0	n/a	n/a	0.0	0	0	0	FR3	0	R1217T
296.622	0.8	308635	WORD_OFF	n/a	n/a	BOWL	10	0	2	[0, 0, 0]	n/a	0	0	0	n/a	n/a	0.0	0	0	0	FR3	0	R1217T
297.422	1.6	309435	WORD	n/a	wordpools/wordpool.txt	STAIR	11	0	2	[0, 0, 0]	n/a	0	0	0	n/a	n/a	0.0	0	0	0	FR3	0	R1217T
299.038	0.935	311051	WORD_OFF	n/a	n/a	STAIR	11	0	2	[0, 0, 0]	n/a	0	0	0	n/a	n/a	0.0	0	0	0	FR3	0	R1217T
299.973	1.6	311986	WORD	n/a	wordpools/wordpool.txt	TOAST	12	0	2	[0, 0, 0]	n/a	0	0	0	n/a	n/a	0.0	0	0	0	FR3	0	R1217T
301.59	0.0	313602	WORD_OFF	n/a	n/a	TOAST	12	0	2	[0, 0, 0]	n/a	0	0	0	n/a	n/a	0.0	0	0	0	FR3	0	R1217T
301.59	0.0	313602	DISTRACT_START	n/a	n/a	n/a	-999	0	2	[0, 0, 0]	n/a	0	0	0	n/a	n/a	0.0	0	0	0	FR3	0	R1217T
301.59	0.016	313602	START	n/a	n/a	n/a	-999	0	2	[-999, -999, -999]	n/a	0	0	0	n/a	n/a	0.0	0	0	0	FR3	0	R1217T
301.606	5.618	313618	PROB	5.58	n/a	n/a	-999	0	2	[1, 4, 3]	8	0	0	0	n/a	n/a	0.0	0	0	0	FR3	0	R1217T
307.224	3.584	319236	PROB	3.552	n/a	n/a	-999	0	2	[5, 5, 5]	15	0	0	0	n/a	n/a	0.0	0	0	0	FR3	0	R1217T
310.808	4.668	322820	PROB	4.632	n/a	n/a	-999	0	2	[7, 3, 5]	15	0	0	0	n/a	n/a	0.0	0	0	0	FR3	0	R1217T
315.476	5.401	327488	PROB	5.373	n/a	n/a	-999	0	2	[6, 5, 2]	13	0	0	0	n/a	n/a	0.0	0	0	0	FR3	0	R1217T
320.877	8.02	332888	PROB	8.02	n/a	n/a	-999	0	2	[6, 7, 7]	20	0	0	0	n/a	n/a	0.0	0	0	0	FR3	0	R1217T
328.897	0.014	340908	STOP	n/a	n/a	n/a	-999	0	2	[-999, -999, -999]	n/a	0	0	0	n/a	n/a	0.0	0	0	0	FR3	0	R1217T
328.911	0.567	340922	DISTRACT_END	n/a	n/a	n/a	-999	0	2	[0, 0, 0]	n/a	0	0	0	n/a	n/a	0.0	0	0	0	FR3	0	R1217T
329.478	0.5	341489	RETRIEVAL_ORIENT	n/a	n/a	n/a	-999	0	2	[0, 0, 0]	n/a	0	0	0	n/a	n/a	0.0	0	0	0	FR3	0	R1217T
329.996	0.951	342007	REC_START	n/a	n/a	n/a	-999	0	2	[0, 0, 0]	n/a	0	0	0	n/a	n/a	0.0	0	0	0	FR3	0	R1217T
330.947	1.087	342958	REC_WORD	0.951	n/a	EEL	5	1	2	[0, 0, 0]	n/a	0	0	0	n/a	n/a	0.0	0	0	0	FR3	0	R1217T
332.034	1.443	344045	REC_WORD	2.038	n/a	SHRIMP	4	1	2	[0, 0, 0]	n/a	0	0	0	n/a	n/a	0.0	0	0	0	FR3	0	R1217T
333.477	1.694	345488	REC_WORD	3.481	n/a	TOE	-999	0	2	[0, 0, 0]	n/a	0	0	0	n/a	n/a	0.0	0	0	0	FR3	0	R1217T
335.171	4.208	347181	REC_WORD	5.175	n/a	FORK	1	1	2	[0, 0, 0]	n/a	0	0	0	n/a	n/a	0.0	0	0	0	FR3	0	R1217T
339.379	20.629	351389	REC_WORD	9.383	n/a	BARN	7	1	2	[0, 0, 0]	n/a	0	0	0	n/a	n/a	0.0	0	0	0	FR3	0	R1217T
360.008	5.042	372017	REC_END	n/a	n/a	n/a	-999	0	2	[0, 0, 0]	n/a	0	0	0	n/a	n/a	0.0	0	0	0	FR3	0	R1217T
365.05	0.5	377059	TRIAL	n/a	n/a	n/a	-999	0	3	[0, 0, 0]	n/a	0	0	0	n/a	n/a	0.0	0	0	0	FR3	0	R1217T
365.55	10.0	377559	COUNTDOWN_START	n/a	n/a	n/a	-999	0	3	[0, 0, 0]	n/a	0	0	0	n/a	n/a	0.0	0	0	0	FR3	0	R1217T
375.978	0.009	387986	COUNTDOWN_END	n/a	n/a	n/a	-999	0	3	[0, 0, 0]	n/a	0	0	0	n/a	n/a	0.0	0	0	0	FR3	0	R1217T
375.987	1.6	387995	ORIENT	n/a	n/a	n/a	-999	0	3	[0, 0, 0]	n/a	0	0	0	n/a	n/a	0.0	0	0	0	FR3	0	R1217T
377.604	1.983	389612	ORIENT_OFF	n/a	n/a	n/a	-999	0	3	[0, 0, 0]	n/a	0	0	0	n/a	n/a	0.0	0	0	0	FR3	0	R1217T
379.587	1.6	391595	WORD	n/a	wordpools/wordpool.txt	TRAY	1	1	3	[0, 0, 0]	n/a	0	0	0	n/a	n/a	0.0	0	0	0	FR3	0	R1217T
381.204	0.784	393212	WORD_OFF	n/a	n/a	TRAY	1	0	3	[0, 0, 0]	n/a	0	0	0	n/a	n/a	0.0	0	0	0	FR3	0	R1217T
381.988	1.6	393996	WORD	n/a	wordpools/wordpool.txt	STRING	2	1	3	[0, 0, 0]	n/a	0	0	0	n/a	n/a	0.0	0	0	0	FR3	0	R1217T
383.605	0.95	395613	WORD_OFF	n/a	n/a	STRING	2	0	3	[0, 0, 0]	n/a	0	0	0	n/a	n/a	0.0	0	0	0	FR3	0	R1217T
384.555	1.6	396562	WORD	n/a	wordpools/wordpool.txt	SNOW	3	0	3	[0, 0, 0]	n/a	0	0	0	n/a	n/a	0.0	0	0	0	FR3	0	R1217T
386.172	0.832	398179	WORD_OFF	n/a	n/a	SNOW	3	0	3	[0, 0, 0]	n/a	0	0	0	n/a	n/a	0.0	0	0	0	FR3	0	R1217T
387.004	1.6	399011	WORD	n/a	wordpools/wordpool.txt	MAZE	4	0	3	[0, 0, 0]	n/a	0	0	0	n/a	n/a	0.0	0	0	0	FR3	0	R1217T
388.622	0.85	400629	WORD_OFF	n/a	n/a	MAZE	4	0	3	[0, 0, 0]	n/a	0	0	0	n/a	n/a	0.0	0	0	0	FR3	0	R1217T
389.472	1.6	401479	WORD	n/a	wordpools/wordpool.txt	BRIDGE	5	0	3	[0, 0, 0]	n/a	0	0	0	n/a	n/a	0.0	0	0	0	FR3	0	R1217T
391.088	0.768	403095	WORD_OFF	n/a	n/a	BRIDGE	5	0	3	[0, 0, 0]	n/a	0	0	0	n/a	n/a	0.0	0	0	0	FR3	0	R1217T
391.856	1.6	403863	WORD	n/a	wordpools/wordpool.txt	BOX	6	1	3	[0, 0, 0]	n/a	0	0	0	n/a	n/a	0.0	0	0	0	FR3	0	R1217T
393.473	0.85	405480	WORD_OFF	n/a	n/a	BOX	6	0	3	[0, 0, 0]	n/a	0	0	0	n/a	n/a	0.0	0	0	0	FR3	0	R1217T
394.323	1.6	406330	WORD	n/a	wordpools/wordpool.txt	RAKE	7	0	3	[0, 0, 0]	n/a	0	0	0	n/a	n/a	0.0	0	0	0	FR3	0	R1217T
395.94	0.917	407947	WORD_OFF	n/a	n/a	RAKE	7	0	3	[0, 0, 0]	n/a	0	0	0	n/a	n/a	0.0	0	0	0	FR3	0	R1217T
396.857	1.6	408864	WORD	n/a	wordpools/wordpool.txt	PEACH	8	0	3	[0, 0, 0]	n/a	0	0	0	n/a	n/a	0.0	0	0	0	FR3	0	R1217T
398.474	0.85	410481	WORD_OFF	n/a	n/a	PEACH	8	0	3	[0, 0, 0]	n/a	0	0	0	n/a	n/a	0.0	0	0	0	FR3	0	R1217T
399.324	1.6	411331	WORD	n/a	wordpools/wordpool.txt	SHIELD	9	0	3	[0, 0, 0]	n/a	0	0	0	n/a	n/a	0.0	0	0	0	FR3	0	R1217T
400.941	0.967	412948	WORD_OFF	n/a	n/a	SHIELD	9	0	3	[0, 0, 0]	n/a	0	0	0	n/a	n/a	0.0	0	0	0	FR3	0	R1217T
401.908	1.6	413914	WORD	n/a	wordpools/wordpool.txt	HOOF	10	0	3	[0, 0, 0]	n/a	0	0	0	n/a	n/a	0.0	0	0	0	FR3	0	R1217T
403.525	0.833	415531	WORD_OFF	n/a	n/a	HOOF	10	0	3	[0, 0, 0]	n/a	0	0	0	n/a	n/a	0.0	0	0	0	FR3	0	R1217T
404.358	1.6	416364	WORD	n/a	wordpools/wordpool.txt	CAR	11	0	3	[0, 0, 0]	n/a	0	0	0	n/a	n/a	0.0	0	0	0	FR3	0	R1217T
405.975	0.801	417981	WORD_OFF	n/a	n/a	CAR	11	0	3	[0, 0, 0]	n/a	0	0	0	n/a	n/a	0.0	0	0	0	FR3	0	R1217T
406.776	1.6	418782	WORD	n/a	wordpools/wordpool.txt	PIPE	12	0	3	[0, 0, 0]	n/a	0	0	0	n/a	n/a	0.0	0	0	0	FR3	0	R1217T
408.393	0.0	420399	WORD_OFF	n/a	n/a	PIPE	12	0	3	[0, 0, 0]	n/a	0	0	0	n/a	n/a	0.0	0	0	0	FR3	0	R1217T
408.393	0.0	420399	DISTRACT_START	n/a	n/a	n/a	-999	0	3	[0, 0, 0]	n/a	0	0	0	n/a	n/a	0.0	0	0	0	FR3	0	R1217T
408.393	0.016	420399	START	n/a	n/a	n/a	-999	0	3	[-999, -999, -999]	n/a	0	0	0	n/a	n/a	0.0	0	0	0	FR3	0	R1217T
408.409	3.7	420415	PROB	3.662	n/a	n/a	-999	0	3	[9, 9, 4]	22	0	0	0	n/a	n/a	0.0	0	0	0	FR3	0	R1217T
412.109	3.235	424115	PROB	3.204	n/a	n/a	-999	0	3	[3, 1, 9]	13	0	0	0	n/a	n/a	0.0	0	0	0	FR3	0	R1217T
415.344	3.733	427350	PROB	3.704	n/a	n/a	-999	0	3	[1, 8, 6]	15	0	0	0	n/a	n/a	0.0	0	0	0	FR3	0	R1217T
419.077	3.785	431082	PROB	3.748	n/a	n/a	-999	0	3	[6, 4, 7]	17	0	0	0	n/a	n/a	0.0	0	0	0	FR3	0	R1217T
422.862	3.767	434867	PROB	3.738	n/a	n/a	-999	0	3	[3, 1, 3]	7	0	0	0	n/a	n/a	0.0	0	0	0	FR3	0	R1217T
426.629	3.579	438634	PROB	3.579	n/a	n/a	-999	0	3	[2, 5, 2]	9	0	0	0	n/a	n/a	0.0	0	0	0	FR3	0	R1217T
430.208	0.022	442213	STOP	n/a	n/a	n/a	-999	0	3	[-999, -999, -999]	n/a	0	0	0	n/a	n/a	0.0	0	0	0	FR3	0	R1217T
430.23	0.583	442235	DISTRACT_END	n/a	n/a	n/a	-999	0	3	[0, 0, 0]	n/a	0	0	0	n/a	n/a	0.0	0	0	0	FR3	0	R1217T
430.813	0.5	442818	RETRIEVAL_ORIENT	n/a	n/a	n/a	-999	0	3	[0, 0, 0]	n/a	0	0	0	n/a	n/a	0.0	0	0	0	FR3	0	R1217T
431.331	2.607	443336	REC_START	n/a	n/a	n/a	-999	0	3	[0, 0, 0]	n/a	0	0	0	n/a	n/a	0.0	0	0	0	FR3	0	R1217T
433.938	0.737	445943	REC_WORD	2.607	n/a	STOVE	-999	0	3	[0, 0, 0]	n/a	0	0	0	n/a	n/a	0.0	0	0	0	FR3	0	R1217T
434.675	1.071	446679	REC_WORD	3.344	n/a	STRING	2	1	3	[0, 0, 0]	n/a	0	0	0	n/a	n/a	0.0	0	0	0	FR3	0	R1217T
435.746	4.784	447750	REC_WORD	4.415	n/a	TRAY	1	1	3	[0, 0, 0]	n/a	0	0	0	n/a	n/a	0.0	0	0	0	FR3	0	R1217T
440.53	10.284	452534	REC_WORD	9.199	n/a	BOX	6	1	3	[0, 0, 0]	n/a	0	0	0	n/a	n/a	0.0	0	0	0	FR3	0	R1217T
450.814	10.53	462818	REC_WORD	19.483	n/a	DRUM	-999	0	3	[0, 0, 0]	n/a	0	0	0	n/a	n/a	0.0	0	0	0	FR3	0	R1217T
461.344	5.758	473347	REC_END	n/a	n/a	n/a	-999	0	3	[0, 0, 0]	n/a	0	0	0	n/a	n/a	0.0	0	0	0	FR3	0	R1217T
467.102	0.5	479105	TRIAL	n/a	n/a	n/a	-999	0	4	[0, 0, 0]	n/a	0	0	0	n/a	n/a	0.0	0	0	0	FR3	0	R1217T
467.602	10.0	479604	COUNTDOWN_START	n/a	n/a	n/a	-999	0	4	[0, 0, 0]	n/a	0	0	0	n/a	n/a	0.0	0	0	0	FR3	0	R1217T
478.03	0.008	490032	COUNTDOWN_END	n/a	n/a	n/a	-999	0	4	[0, 0, 0]	n/a	0	0	0	n/a	n/a	0.0	0	0	0	FR3	0	R1217T
478.038	1.6	490040	ORIENT	n/a	n/a	n/a	-999	0	4	[0, 0, 0]	n/a	0	0	0	n/a	n/a	0.0	0	0	0	FR3	0	R1217T
479.655	2.167	491657	ORIENT_OFF	n/a	n/a	n/a	-999	0	4	[0, 0, 0]	n/a	0	0	0	n/a	n/a	0.0	0	0	0	FR3	0	R1217T
481.822	1.6	493824	WORD	n/a	wordpools/wordpool.txt	TIE	1	1	4	[0, 0, 0]	n/a	0	0	0	n/a	n/a	0.0	0	0	0	FR3	0	R1217T
483.439	0.834	495441	WORD_OFF	n/a	n/a	TIE	1	0	4	[0, 0, 0]	n/a	0	0	0	n/a	n/a	0.0	0	0	0	FR3	0	R1217T
484.273	1.6	496274	WORD	n/a	wordpools/wordpool.txt	VINE	2	1	4	[0, 0, 0]	n/a	0	0	0	n/a	n/a	0.0	0	0	0	FR3	0	R1217T
485.89	0.967	497891	WORD_OFF	n/a	n/a	VINE	2	0	4	[0, 0, 0]	n/a	0	0	0	n/a	n/a	0.0	0	0	0	FR3	0	R1217T
486.857	1.6	498858	WORD	n/a	wordpools/wordpool.txt	CAGE	3	0	4	[0, 0, 0]	n/a	0	0	0	n/a	n/a	0.0	0	0	0	FR3	0	R1217T
488.474	0.95	500475	WORD_OFF	n/a	n/a	CAGE	3	0	4	[0, 0, 0]	n/a	0	0	0	n/a	n/a	0.0	0	0	0	FR3	0	R1217T
489.424	1.6	501425	WORD	n/a	wordpools/wordpool.txt	STOOL	4	1	4	[0, 0, 0]	n/a	0	0	0	n/a	n/a	0.0	0	0	0	FR3	0	R1217T
491.04	0.934	503041	WORD_OFF	n/a	n/a	STOOL	4	0	4	[0, 0, 0]	n/a	0	0	0	n/a	n/a	0.0	0	0	0	FR3	0	R1217T
491.974	1.6	503975	WORD	n/a	wordpools/wordpool.txt	BAND	5	0	4	[0, 0, 0]	n/a	0	0	0	n/a	n/a	0.0	0	0	0	FR3	0	R1217T
493.591	1.017	505592	WORD_OFF	n/a	n/a	BAND	5	0	4	[0, 0, 0]	n/a	0	0	0	n/a	n/a	0.0	0	0	0	FR3	0	R1217T
494.608	1.6	506609	WORD	n/a	wordpools/wordpool.txt	CLAY	6	0	4	[0, 0, 0]	n/a	0	0	0	n/a	n/a	0.0	0	0	0	FR3	0	R1217T
496.225	1.0	508226	WORD_OFF	n/a	n/a	CLAY	6	0	4	[0, 0, 0]	n/a	0	0	0	n/a	n/a	0.0	0	0	0	FR3	0	R1217T
497.225	1.6	509226	WORD	n/a	wordpools/wordpool.txt	HAND	7	0	4	[0, 0, 0]	n/a	0	0	0	n/a	n/a	0.0	0	0	0	FR3	0	R1217T
498.842	0.934	510843	WORD_OFF	n/a	n/a	HAND	7	0	4	[0, 0, 0]	n/a	0	0	0	n/a	n/a	0.0	0	0	0	FR3	0	R1217T
499.776	1.6	511777	WORD	n/a	wordpools/wordpool.txt	OAR	8	0	4	[0, 0, 0]	n/a	0	0	0	n/a	n/a	0.0	0	0	0	FR3	0	R1217T
501.393	0.783	513393	WORD_OFF	n/a	n/a	OAR	8	0	4	[0, 0, 0]	n/a	0	0	0	n/a	n/a	0.0	0	0	0	FR3	0	R1217T
502.176	1.6	514176	WORD	n/a	wordpools/wordpool.txt	LOCK	9	0	4	[0, 0, 0]	n/a	0	0	0	n/a	n/a	0.0	0	0	0	FR3	0	R1217T
503.793	0.917	515793	WORD_OFF	n/a	n/a	LOCK	9	0	4	[0, 0, 0]	n/a	0	0	0	n/a	n/a	0.0	0	0	0	FR3	0	R1217T
504.71	1.6	516710	WORD	n/a	wordpools/wordpool.txt	SUIT	10	0	4	[0, 0, 0]	n/a	0	0	0	n/a	n/a	0.0	0	0	0	FR3	0	R1217T
506.327	1.0	518327	WORD_OFF	n/a	n/a	SUIT	10	0	4	[0, 0, 0]	n/a	0	0	0	n/a	n/a	0.0	0	0	0	FR3	0	R1217T
507.327	1.6	519327	WORD	n/a	wordpools/wordpool.txt	HOOK	11	0	4	[0, 0, 0]	n/a	0	0	0	n/a	n/a	0.0	0	0	0	FR3	0	R1217T
508.944	0.784	520944	WORD_OFF	n/a	n/a	HOOK	11	0	4	[0, 0, 0]	n/a	0	0	0	n/a	n/a	0.0	0	0	0	FR3	0	R1217T
509.728	1.6	521728	WORD	n/a	wordpools/wordpool.txt	BATH	12	0	4	[0, 0, 0]	n/a	0	0	0	n/a	n/a	0.0	0	0	0	FR3	0	R1217T
511.345	0.0	523345	WORD_OFF	n/a	n/a	BATH	12	0	4	[0, 0, 0]	n/a	0	0	0	n/a	n/a	0.0	0	0	0	FR3	0	R1217T
511.345	0.0	523345	DISTRACT_START	n/a	n/a	n/a	-999	0	4	[0, 0, 0]	n/a	0	0	0	n/a	n/a	0.0	0	0	0	FR3	0	R1217T
511.345	0.016	523345	START	n/a	n/a	n/a	-999	0	4	[-999, -999, -999]	n/a	0	0	0	n/a	n/a	0.0	0	0	0	FR3	0	R1217T
511.361	4.334	523361	PROB	4.295	n/a	n/a	-999	0	4	[8, 6, 4]	18	0	0	0	n/a	n/a	0.0	0	0	0	FR3	0	R1217T
515.695	5.235	527695	PROB	5.211	n/a	n/a	-999	0	4	[6, 4, 8]	18	0	0	0	n/a	n/a	0.0	0	0	0	FR3	0	R1217T
520.93	17.79	532929	PROB	17.79	n/a	n/a	-999	0	4	[7, 5, 5]	17	0	0	0	n/a	n/a	0.0	0	0	0	FR3	0	R1217T
538.72	0.013	550718	STOP	n/a	n/a	n/a	-999	0	4	[-999, -999, -999]	n/a	0	0	0	n/a	n/a	0.0	0	0	0	FR3	0	R1217T
538.733	0.567	550731	DISTRACT_END	n/a	n/a	n/a	-999	0	4	[0, 0, 0]	n/a	0	0	0	n/a	n/a	0.0	0	0	0	FR3	0	R1217T
539.3	0.5	551298	RETRIEVAL_ORIENT	n/a	n/a	n/a	-999	0	4	[0, 0, 0]	n/a	0	0	0	n/a	n/a	0.0	0	0	0	FR3	0	R1217T
539.817	1.55	551815	REC_START	n/a	n/a	n/a	-999	0	4	[0, 0, 0]	n/a	0	0	0	n/a	n/a	0.0	0	0	0	FR3	0	R1217T
541.367	0.969	553365	REC_WORD	1.55	n/a	TIE	1	1	4	[0, 0, 0]	n/a	0	0	0	n/a	n/a	0.0	0	0	0	FR3	0	R1217T
542.336	1.018	554334	REC_WORD	2.519	n/a	VINE	2	1	4	[0, 0, 0]	n/a	0	0	0	n/a	n/a	0.0	0	0	0	FR3	0	R1217T
543.354	5.628	555352	REC_WORD	3.537	n/a	STOOL	4	1	4	[0, 0, 0]	n/a	0	0	0	n/a	n/a	0.0	0	0	0	FR3	0	R1217T
548.982	2.745	560980	REC_WORD	9.165	n/a	TRAY	-999	0	4	[0, 0, 0]	n/a	0	0	0	n/a	n/a	0.0	0	0	0	FR3	0	R1217T
551.727	18.101	563724	REC_WORD	11.91	n/a	WATCH	-999	0	4	[0, 0, 0]	n/a	0	0	0	n/a	n/a	0.0	0	0	0	FR3	0	R1217T
569.828	5.678	581824	REC_END	n/a	n/a	n/a	-999	0	4	[0, 0, 0]	n/a	0	0	0	n/a	n/a	0.0	0	0	0	FR3	0	R1217T
575.506	0.5	587502	TRIAL	n/a	n/a	n/a	-999	0	5	[0, 0, 0]	n/a	0	1	0	n/a	n/a	0.0	0	0	0	FR3	0	R1217T
576.006	10.0	588002	COUNTDOWN_START	n/a	n/a	n/a	-999	0	5	[0, 0, 0]	n/a	0	1	0	n/a	n/a	0.0	0	0	0	FR3	0	R1217T
586.434	0.008	598429	COUNTDOWN_END	n/a	n/a	n/a	-999	0	5	[0, 0, 0]	n/a	0	1	0	n/a	n/a	0.0	0	0	0	FR3	0	R1217T
586.442	1.6	598437	ORIENT	n/a	n/a	n/a	-999	0	5	[0, 0, 0]	n/a	0	1	0	n/a	n/a	0.0	0	0	0	FR3	0	R1217T
588.057	2.302	600052	ORIENT_OFF	n/a	n/a	n/a	-999	0	5	[0, 0, 0]	n/a	0	1	0	n/a	n/a	0.0	0	0	0	FR3	0	R1217T
590.359	1.6	602354	WORD	n/a	wordpools/wordpool.txt	MAP	1	0	5	[0, 0, 0]	n/a	0	1	0	n/a	n/a	0.0	0	0	0	FR3	0	R1217T
591.883	0.0	603878	STIM_ON	n/a	n/a	MAP	1	0	5	[0, 0, 0]	n/a	1	1	500	LC9	LC10	750.0	200	100	300	FR3	0	R1217T
591.976	0.407	603971	WORD_OFF	n/a	n/a	MAP	1	0	5	[0, 0, 0]	n/a	1	1	500	LC9	LC10	750.0	200	100	300	FR3	0	R1217T
592.383	0.376	604378	STIM_OFF	n/a	n/a	n/a	1	0	5	[0, 0, 0]	n/a	0	1	500	LC9	LC10	750.0	200	100	300	FR3	0	R1217T
592.759	1.6	604754	WORD	n/a	wordpools/wordpool.txt	CONE	2	1	5	[0, 0, 0]	n/a	0	1	0	n/a	n/a	0.0	0	0	0	FR3	0	R1217T
594.376	0.867	606371	WORD_OFF	n/a	n/a	CONE	2	0	5	[0, 0, 0]	n/a	0	1	0	n/a	n/a	0.0	0	0	0	FR3	0	R1217T
595.243	1.6	607238	WORD	n/a	wordpools/wordpool.txt	FOAM	3	1	5	[0, 0, 0]	n/a	0	1	0	n/a	n/a	0.0	0	0	0	FR3	0	R1217T
596.86	0.9	608855	WORD_OFF	n/a	n/a	FOAM	3	0	5	[0, 0, 0]	n/a	0	1	0	n/a	n/a	0.0	0	0	0	FR3	0	R1217T
597.76	1.6	609755	WORD	n/a	wordpools/wordpool.txt	HOSE	4	1	5	[0, 0, 0]	n/a	0	1	0	n/a	n/a	0.0	0	0	0	FR3	0	R1217T
599.377	0.95	611372	WORD_OFF	n/a	n/a	HOSE	4	0	5	[0, 0, 0]	n/a	0	1	0	n/a	n/a	0.0	0	0	0	FR3	0	R1217T
600.327	1.6	612322	WORD	n/a	wordpools/wordpool.txt	BOOK	5	0	5	[0, 0, 0]	n/a	0	1	0	n/a	n/a	0.0	0	0	0	FR3	0	R1217T
601.944	0.767	613938	WORD_OFF	n/a	n/a	BOOK	5	0	5	[0, 0, 0]	n/a	0	1	0	n/a	n/a	0.0	0	0	0	FR3	0	R1217T
602.711	1.6	614705	WORD	n/a	wordpools/wordpool.txt	OWL	6	0	5	[0, 0, 0]	n/a	0	1	0	n/a	n/a	0.0	0	0	0	FR3	0	R1217T
604.223	0.0	616217	STIM_ON	n/a	n/a	OWL	6	0	5	[0, 0, 0]	n/a	1	1	500	LC9	LC10	750.0	200	100	300	FR3	0	R1217T
604.328	0.395	616322	WORD_OFF	n/a	n/a	OWL	6	0	5	[0, 0, 0]	n/a	1	1	500	LC9	LC10	750.0	200	100	300	FR3	0	R1217T
604.723	0.489	616717	STIM_OFF	n/a	n/a	n/a	6	0	5	[0, 0, 0]	n/a	0	1	500	LC9	LC10	750.0	200	100	300	FR3	0	R1217T
605.212	1.6	617206	WORD	n/a	wordpools/wordpool.txt	MOON	7	0	5	[0, 0, 0]	n/a	0	1	0	n/a	n/a	0.0	0	0	0	FR3	0	R1217T
606.725	0.0	618719	STIM_ON	n/a	n/a	MOON	7	0	5	[0, 0, 0]	n/a	1	1	500	LC9	LC10	750.0	200	100	300	FR3	0	R1217T
606.829	0.396	618823	WORD_OFF	n/a	n/a	MOON	7	0	5	[0, 0, 0]	n/a	1	1	500	LC9	LC10	750.0	200	100	300	FR3	0	R1217T
607.225	0.604	619219	STIM_OFF	n/a	n/a	n/a	7	0	5	[0, 0, 0]	n/a	0	1	500	LC9	LC10	750.0	200	100	300	FR3	0	R1217T
607.829	1.6	619823	WORD	n/a	wordpools/wordpool.txt	JUDGE	8	0	5	[0, 0, 0]	n/a	0	1	0	n/a	n/a	0.0	0	0	0	FR3	0	R1217T
609.446	0.783	621440	WORD_OFF	n/a	n/a	JUDGE	8	0	5	[0, 0, 0]	n/a	0	1	0	n/a	n/a	0.0	0	0	0	FR3	0	R1217T
610.229	1.6	622223	WORD	n/a	wordpools/wordpool.txt	MILK	9	0	5	[0, 0, 0]	n/a	0	1	0	n/a	n/a	0.0	0	0	0	FR3	0	R1217T
611.745	0.0	623739	STIM_ON	n/a	n/a	MILK	9	0	5	[0, 0, 0]	n/a	1	1	500	LC9	LC10	750.0	200	100	300	FR3	0	R1217T
611.846	0.4	623840	WORD_OFF	n/a	n/a	MILK	9	0	5	[0, 0, 0]	n/a	1	1	500	LC9	LC10	750.0	200	100	300	FR3	0	R1217T
612.246	0.534	624240	STIM_OFF	n/a	n/a	n/a	9	0	5	[0, 0, 0]	n/a	0	1	500	LC9	LC10	750.0	200	100	300	FR3	0	R1217T
612.78	1.6	624774	WORD	n/a	wordpools/wordpool.txt	DOLL	10	0	5	[0, 0, 0]	n/a	0	1	0	n/a	n/a	0.0	0	0	0	FR3	0	R1217T
614.292	0.0	626286	STIM_ON	n/a	n/a	DOLL	10	0	5	[0, 0, 0]	n/a	1	1	500	LC9	LC10	750.0	200	100	300	FR3	0	R1217T
614.396	0.396	626390	WORD_OFF	n/a	n/a	DOLL	10	0	5	[0, 0, 0]	n/a	1	1	500	LC9	LC10	750.0	200	100	300	FR3	0	R1217T
614.792	0.405	626786	STIM_OFF	n/a	n/a	n/a	10	0	5	[0, 0, 0]	n/a	0	1	500	LC9	LC10	750.0	200	100	300	FR3	0	R1217T
615.197	1.6	627191	WORD	n/a	wordpools/wordpool.txt	TOY	11	0	5	[0, 0, 0]	n/a	0	1	0	n/a	n/a	0.0	0	0	0	FR3	0	R1217T
616.72	0.0	628714	STIM_ON	n/a	n/a	TOY	11	0	5	[0, 0, 0]	n/a	1	1	500	LC9	LC10	750.0	200	100	300	FR3	0	R1217T
616.814	0.406	628808	WORD_OFF	n/a	n/a	TOY	11	0	5	[0, 0, 0]	n/a	1	1	500	LC9	LC10	750.0	200	100	300	FR3	0	R1217T
617.22	0.427	629214	STIM_OFF	n/a	n/a	n/a	11	0	5	[0, 0, 0]	n/a	0	1	500	LC9	LC10	750.0	200	100	300	FR3	0	R1217T
617.647	1.6	629640	WORD	n/a	wordpools/wordpool.txt	TRAIN	12	0	5	[0, 0, 0]	n/a	0	1	0	n/a	n/a	0.0	0	0	0	FR3	0	R1217T
619.166	0.0	631159	STIM_ON	n/a	n/a	TRAIN	12	0	5	[0, 0, 0]	n/a	1	1	500	LC9	LC10	750.0	200	100	300	FR3	0	R1217T
619.264	0.0	631257	WORD_OFF	n/a	n/a	TRAIN	12	0	5	[0, 0, 0]	n/a	1	1	500	LC9	LC10	750.0	200	100	300	FR3	0	R1217T
619.264	0.001	631257	DISTRACT_START	n/a	n/a	n/a	-999	0	5	[0, 0, 0]	n/a	1	1	500	LC9	LC10	750.0	200	100	300	FR3	0	R1217T
619.265	0.016	631258	START	n/a	n/a	n/a	-999	0	5	[-999, -999, -999]	n/a	0	1	0	n/a	n/a	0.0	0	0	0	FR3	0	R1217T
619.281	0.385	631274	PROB	4.449	n/a	n/a	-999	0	5	[2, 6, 6]	14	0	1	0	n/a	n/a	0.0	0	0	0	FR3	0	R1217T
619.666	4.099	631659	STIM_OFF	n/a	n/a	n/a	-999	0	5	[0, 0, 0]	n/a	0	1	500	LC9	LC10	750.0	200	100	300	FR3	0	R1217T
623.765	3.051	635758	PROB	3.012	n/a	n/a	-999	0	5	[8, 9, 7]	23	0	1	0	n/a	n/a	0.0	0	0	0	FR3	0	R1217T
626.816	5.801	638809	PROB	5.776	n/a	n/a	-999	0	5	[6, 9, 2]	17	0	1	0	n/a	n/a	0.0	0	0	0	FR3	0	R1217T
632.617	3.917	644610	PROB	3.889	n/a	n/a	-999	0	5	[3, 6, 9]	18	0	1	0	n/a	n/a	0.0	0	0	0	FR3	0	R1217T
636.534	13.011	648526	PROB	13.011	n/a	n/a	-999	0	5	[6, 5, 7]	18	0	1	0	n/a	n/a	0.0	0	0	0	FR3	0	R1217T
649.545	0.008	661537	STOP	n/a	n/a	n/a	-999	0	5	[-999, -999, -999]	n/a	0	1	0	n/a	n/a	0.0	0	0	0	FR3	0	R1217T
649.553	0.7	661545	DISTRACT_END	n/a	n/a	n/a	-999	0	5	[0, 0, 0]	n/a	0	1	0	n/a	n/a	0.0	0	0	0	FR3	0	R1217T
650.253	0.5	662245	RETRIEVAL_ORIENT	n/a	n/a	n/a	-999	0	5	[0, 0, 0]	n/a	0	1	0	n/a	n/a	0.0	0	0	0	FR3	0	R1217T
650.771	1.17	662762	REC_START	n/a	n/a	n/a	-999	0	5	[0, 0, 0]	n/a	0	1	0	n/a	n/a	0.0	0	0	0	FR3	0	R1217T
651.941	1.623	663932	REC_WORD	1.17	n/a	FOAM	3	1	5	[0, 0, 0]	n/a	0	1	0	n/a	n/a	0.0	0	0	0	FR3	0	R1217T
653.564	1.59	665555	REC_WORD	2.793	n/a	CONE	2	1	5	[0, 0, 0]	n/a	0	1	0	n/a	n/a	0.0	0	0	0	FR3	0	R1217T
655.154	1.433	667145	REC_WORD	4.383	n/a	HOSE	4	1	5	[0, 0, 0]	n/a	0	1	0	n/a	n/a	0.0	0	0	0	FR3	0	R1217T
656.587	1.726	668578	REC_WORD	5.816	n/a	TRAY	-999	0	5	[0, 0, 0]	n/a	0	1	0	n/a	n/a	0.0	0	0	0	FR3	0	R1217T
658.313	22.469	670304	REC_WORD	7.542	n/a	HOOK	-999	0	5	[0, 0, 0]	n/a	0	1	0	n/a	n/a	0.0	0	0	0	FR3	0	R1217T
680.782	14.196	692772	REC_END	n/a	n/a	n/a	-999	0	5	[0, 0, 0]	n/a	0	1	0	n/a	n/a	0.0	0	0	0	FR3	0	R1217T
694.978	0.5	706967	TRIAL	n/a	n/a	n/a	-999	0	6	[0, 0, 0]	n/a	0	1	0	n/a	n/a	0.0	0	0	0	FR3	0	R1217T
695.478	10.0	707467	COUNTDOWN_START	n/a	n/a	n/a	-999	0	6	[0, 0, 0]	n/a	0	1	0	n/a	n/a	0.0	0	0	0	FR3	0	R1217T
705.906	0.007	717894	COUNTDOWN_END	n/a	n/a	n/a	-999	0	6	[0, 0, 0]	n/a	0	1	0	n/a	n/a	0.0	0	0	0	FR3	0	R1217T
705.913	1.6	717901	ORIENT	n/a	n/a	n/a	-999	0	6	[0, 0, 0]	n/a	0	1	0	n/a	n/a	0.0	0	0	0	FR3	0	R1217T
707.53	2.067	719518	ORIENT_OFF	n/a	n/a	n/a	-999	0	6	[0, 0, 0]	n/a	0	1	0	n/a	n/a	0.0	0	0	0	FR3	0	R1217T
709.597	1.6	721585	WORD	n/a	wordpools/wordpool.txt	SLEEVE	1	0	6	[0, 0, 0]	n/a	0	1	0	n/a	n/a	0.0	0	0	0	FR3	0	R1217T
711.214	0.933	723202	WORD_OFF	n/a	n/a	SLEEVE	1	0	6	[0, 0, 0]	n/a	0	1	0	n/a	n/a	0.0	0	0	0	FR3	0	R1217T
712.147	1.6	724135	WORD	n/a	wordpools/wordpool.txt	PEARL	2	1	6	[0, 0, 0]	n/a	0	1	0	n/a	n/a	0.0	0	0	0	FR3	0	R1217T
713.765	0.85	725753	WORD_OFF	n/a	n/a	PEARL	2	0	6	[0, 0, 0]	n/a	0	1	0	n/a	n/a	0.0	0	0	0	FR3	0	R1217T
714.615	1.6	726603	WORD	n/a	wordpools/wordpool.txt	BEAR	3	1	6	[0, 0, 0]	n/a	0	1	0	n/a	n/a	0.0	0	0	0	FR3	0	R1217T
716.232	0.899	728220	WORD_OFF	n/a	n/a	BEAR	3	0	6	[0, 0, 0]	n/a	0	1	0	n/a	n/a	0.0	0	0	0	FR3	0	R1217T
717.131	1.6	729118	WORD	n/a	wordpools/wordpool.txt	NET	4	1	6	[0, 0, 0]	n/a	0	1	0	n/a	n/a	0.0	0	0	0	FR3	0	R1217T
718.732	0.984	730719	WORD_OFF	n/a	n/a	NET	4	0	6	[0, 0, 0]	n/a	0	1	0	n/a	n/a	0.0	0	0	0	FR3	0	R1217T
719.716	1.6	731703	WORD	n/a	wordpools/wordpool.txt	HORSE	5	1	6	[0, 0, 0]	n/a	0	1	0	n/a	n/a	0.0	0	0	0	FR3	0	R1217T
721.236	0.0	733223	STIM_ON	n/a	n/a	HORSE	5	1	6	[0, 0, 0]	n/a	1	1	500	LC9	LC10	750.0	200	100	300	FR3	0	R1217T
721.333	0.403	733320	WORD_OFF	n/a	n/a	HORSE	5	0	6	[0, 0, 0]	n/a	1	1	500	LC9	LC10	750.0	200	100	300	FR3	0	R1217T
721.736	0.564	733723	STIM_OFF	n/a	n/a	n/a	5	0	6	[0, 0, 0]	n/a	0	1	500	LC9	LC10	750.0	200	100	300	FR3	0	R1217T
722.3	1.6	734287	WORD	n/a	wordpools/wordpool.txt	CAKE	6	0	6	[0, 0, 0]	n/a	0	1	0	n/a	n/a	0.0	0	0	0	FR3	0	R1217T
723.827	0.0	735814	STIM_ON	n/a	n/a	CAKE	6	0	6	[0, 0, 0]	n/a	1	1	500	LC9	LC10	750.0	200	100	300	FR3	0	R1217T
723.917	0.41	735904	WORD_OFF	n/a	n/a	CAKE	6	0	6	[0, 0, 0]	n/a	1	1	500	LC9	LC10	750.0	200	100	300	FR3	0	R1217T
724.327	0.406	736314	STIM_OFF	n/a	n/a	n/a	6	0	6	[0, 0, 0]	n/a	0	1	500	LC9	LC10	750.0	200	100	300	FR3	0	R1217T
724.733	1.6	736720	WORD	n/a	wordpools/wordpool.txt	PIN	7	0	6	[0, 0, 0]	n/a	0	1	0	n/a	n/a	0.0	0	0	0	FR3	0	R1217T
726.35	0.8	738337	WORD_OFF	n/a	n/a	PIN	7	0	6	[0, 0, 0]	n/a	0	1	0	n/a	n/a	0.0	0	0	0	FR3	0	R1217T
727.15	1.6	739137	WORD	n/a	wordpools/wordpool.txt	PEA	8	0	6	[0, 0, 0]	n/a	0	1	0	n/a	n/a	0.0	0	0	0	FR3	0	R1217T
728.767	0.817	740754	WORD_OFF	n/a	n/a	PEA	8	0	6	[0, 0, 0]	n/a	0	1	0	n/a	n/a	0.0	0	0	0	FR3	0	R1217T
729.584	1.6	741571	WORD	n/a	wordpools/wordpool.txt	BEE	9	1	6	[0, 0, 0]	n/a	0	1	0	n/a	n/a	0.0	0	0	0	FR3	0	R1217T
731.201	0.933	743188	WORD_OFF	n/a	n/a	BEE	9	0	6	[0, 0, 0]	n/a	0	1	0	n/a	n/a	0.0	0	0	0	FR3	0	R1217T
732.134	1.6	744121	WORD	n/a	wordpools/wordpool.txt	RAT	10	1	6	[0, 0, 0]	n/a	0	1	0	n/a	n/a	0.0	0	0	0	FR3	0	R1217T
733.659	0.0	745646	STIM_ON	n/a	n/a	RAT	10	1	6	[0, 0, 0]	n/a	1	1	500	LC9	LC10	750.0	200	100	300	FR3	0	R1217T
733.735	0.424	745721	WORD_OFF	n/a	n/a	RAT	10	0	6	[0, 0, 0]	n/a	1	1	500	LC9	LC10	750.0	200	100	300	FR3	0	R1217T
734.159	0.56	746145	STIM_OFF	n/a	n/a	n/a	10	0	6	[0, 0, 0]	n/a	0	1	500	LC9	LC10	750.0	200	100	300	FR3	0	R1217T
734.719	1.6	746705	WORD	n/a	wordpools/wordpool.txt	POLE	11	0	6	[0, 0, 0]	n/a	0	1	0	n/a	n/a	0.0	0	0	0	FR3	0	R1217T
736.249	0.0	748235	STIM_ON	n/a	n/a	POLE	11	0	6	[0, 0, 0]	n/a	1	1	500	LC9	LC10	750.0	200	100	300	FR3	0	R1217T
736.336	0.413	748322	WORD_OFF	n/a	n/a	POLE	11	0	6	[0, 0, 0]	n/a	1	1	500	LC9	LC10	750.0	200	100	300	FR3	0	R1217T
736.749	0.369	748735	STIM_OFF	n/a	n/a	n/a	11	0	6	[0, 0, 0]	n/a	0	1	500	LC9	LC10	750.0	200	100	300	FR3	0	R1217T
737.118	1.6	749104	WORD	n/a	wordpools/wordpool.txt	GLASS	12	0	6	[0, 0, 0]	n/a	0	1	0	n/a	n/a	0.0	0	0	0	FR3	0	R1217T
738.719	0.0	750705	WORD_OFF	n/a	n/a	GLASS	12	0	6	[0, 0, 0]	n/a	0	1	0	n/a	n/a	0.0	0	0	0	FR3	0	R1217T
738.719	0.001	750705	DISTRACT_START	n/a	n/a	n/a	-999	0	6	[0, 0, 0]	n/a	0	1	0	n/a	n/a	0.0	0	0	0	FR3	0	R1217T
738.72	0.016	750706	START	n/a	n/a	n/a	-999	0	6	[-999, -999, -999]	n/a	0	1	0	n/a	n/a	0.0	0	0	0	FR3	0	R1217T
738.736	4.768	750722	PROB	4.744	n/a	n/a	-999	0	6	[7, 6, 2]	15	0	1	0	n/a	n/a	0.0	0	0	0	FR3	0	R1217T
743.504	3.117	755490	PROB	3.089	n/a	n/a	-999	0	6	[3, 6, 2]	11	0	1	0	n/a	n/a	0.0	0	0	0	FR3	0	R1217T
746.621	4.601	758607	PROB	4.563	n/a	n/a	-999	0	6	[2, 8, 4]	14	0	1	0	n/a	n/a	0.0	0	0	0	FR3	0	R1217T
751.222	9.307	763207	PROB	9.307	n/a	n/a	-999	0	6	[7, 6, 3]	16	0	1	0	n/a	n/a	0.0	0	0	0	FR3	0	R1217T
760.529	0.011	772514	STOP	n/a	n/a	n/a	-999	0	6	[-999, -999, -999]	n/a	0	1	0	n/a	n/a	0.0	0	0	0	FR3	0	R1217T
760.54	0.65	772525	DISTRACT_END	n/a	n/a	n/a	-999	0	6	[0, 0, 0]	n/a	0	1	0	n/a	n/a	0.0	0	0	0	FR3	0	R1217T
761.19	0.5	773175	RETRIEVAL_ORIENT	n/a	n/a	n/a	-999	0	6	[0, 0, 0]	n/a	0	1	0	n/a	n/a	0.0	0	0	0	FR3	0	R1217T
761.707	1.123	773692	REC_START	n/a	n/a	n/a	-999	0	6	[0, 0, 0]	n/a	0	1	0	n/a	n/a	0.0	0	0	0	FR3	0	R1217T
762.83	0.98	774815	REC_WORD	1.123	n/a	BEAR	3	1	6	[0, 0, 0]	n/a	0	1	0	n/a	n/a	0.0	0	0	0	FR3	0	R1217T
763.81	1.435	775795	REC_WORD	2.103	n/a	BEE	9	1	6	[0, 0, 0]	n/a	0	1	0	n/a	n/a	0.0	0	0	0	FR3	0	R1217T
765.245	0.995	777230	REC_WORD	3.538	n/a	RAT	10	1	6	[0, 0, 0]	n/a	0	1	0	n/a	n/a	0.0	0	0	0	FR3	0	R1217T
766.24	1.699	778225	REC_WORD	4.533	n/a	HORSE	5	1	6	[0, 0, 0]	n/a	0	1	0	n/a	n/a	0.0	0	0	0	FR3	0	R1217T
767.939	0.896	779923	REC_WORD	6.232	n/a	PEARL	2	1	6	[0, 0, 0]	n/a	0	1	0	n/a	n/a	0.0	0	0	0	FR3	0	R1217T
768.835	22.883	780819	REC_WORD	7.128	n/a	NET	4	1	6	[0, 0, 0]	n/a	0	1	0	n/a	n/a	0.0	0	0	0	FR3	0	R1217T
791.718	5.745	803701	REC_END	n/a	n/a	n/a	-999	0	6	[0, 0, 0]	n/a	0	1	0	n/a	n/a	0.0	0	0	0	FR3	0	R1217T
797.463	0.5	809446	TRIAL	n/a	n/a	n/a	-999	0	7	[0, 0, 0]	n/a	0	1	0	n/a	n/a	0.0	0	0	0	FR3	0	R1217T
797.963	10.0	809946	COUNTDOWN_START	n/a	n/a	n/a	-999	0	7	[0, 0, 0]	n/a	0	1	0	n/a	n/a	0.0	0	0	0	FR3	0	R1217T
808.391	0.008	820373	COUNTDOWN_END	n/a	n/a	n/a	-999	0	7	[0, 0, 0]	n/a	0	1	0	n/a	n/a	0.0	0	0	0	FR3	0	R1217T
808.399	1.6	820381	ORIENT	n/a	n/a	n/a	-999	0	7	[0, 0, 0]	n/a	0	1	0	n/a	n/a	0.0	0	0	0	FR3	0	R1217T
810.015	2.151	821997	ORIENT_OFF	n/a	n/a	n/a	-999	0	7	[0, 0, 0]	n/a	0	1	0	n/a	n/a	0.0	0	0	0	FR3	0	R1217T
812.166	1.6	824148	WORD	n/a	wordpools/wordpool.txt	SPEAR	1	0	7	[0, 0, 0]	n/a	0	1	0	n/a	n/a	0.0	0	0	0	FR3	0	R1217T
813.783	0.817	825765	WORD_OFF	n/a	n/a	SPEAR	1	0	7	[0, 0, 0]	n/a	0	1	0	n/a	n/a	0.0	0	0	0	FR3	0	R1217T
814.6	1.6	826582	WORD	n/a	wordpools/wordpool.txt	DOCK	2	0	7	[0, 0, 0]	n/a	0	1	0	n/a	n/a	0.0	0	0	0	FR3	0	R1217T
816.217	0.983	828199	WORD_OFF	n/a	n/a	DOCK	2	0	7	[0, 0, 0]	n/a	0	1	0	n/a	n/a	0.0	0	0	0	FR3	0	R1217T
817.2	1.6	829181	WORD	n/a	wordpools/wordpool.txt	SOAP	3	0	7	[0, 0, 0]	n/a	0	1	0	n/a	n/a	0.0	0	0	0	FR3	0	R1217T
818.817	1.0	830798	WORD_OFF	n/a	n/a	SOAP	3	0	7	[0, 0, 0]	n/a	0	1	0	n/a	n/a	0.0	0	0	0	FR3	0	R1217T
819.817	1.6	831798	WORD	n/a	wordpools/wordpool.txt	BOMB	4	0	7	[0, 0, 0]	n/a	0	1	0	n/a	n/a	0.0	0	0	0	FR3	0	R1217T
821.434	0.951	833415	WORD_OFF	n/a	n/a	BOMB	4	0	7	[0, 0, 0]	n/a	0	1	0	n/a	n/a	0.0	0	0	0	FR3	0	R1217T
822.385	1.6	834366	WORD	n/a	wordpools/wordpool.txt	APE	5	0	7	[0, 0, 0]	n/a	0	1	0	n/a	n/a	0.0	0	0	0	FR3	0	R1217T
824.001	0.784	835982	WORD_OFF	n/a	n/a	APE	5	0	7	[0, 0, 0]	n/a	0	1	0	n/a	n/a	0.0	0	0	0	FR3	0	R1217T
824.785	1.6	836766	WORD	n/a	wordpools/wordpool.txt	SOCK	6	0	7	[0, 0, 0]	n/a	0	1	0	n/a	n/a	0.0	0	0	0	FR3	0	R1217T
826.402	0.85	838383	WORD_OFF	n/a	n/a	SOCK	6	0	7	[0, 0, 0]	n/a	0	1	0	n/a	n/a	0.0	0	0	0	FR3	0	R1217T
827.252	1.6	839233	WORD	n/a	wordpools/wordpool.txt	CHIEF	7	1	7	[0, 0, 0]	n/a	0	1	0	n/a	n/a	0.0	0	0	0	FR3	0	R1217T
828.869	1.017	840850	WORD_OFF	n/a	n/a	CHIEF	7	0	7	[0, 0, 0]	n/a	0	1	0	n/a	n/a	0.0	0	0	0	FR3	0	R1217T
829.886	1.6	841867	WORD	n/a	wordpools/wordpool.txt	THUMB	8	1	7	[0, 0, 0]	n/a	0	1	0	n/a	n/a	0.0	0	0	0	FR3	0	R1217T
831.503	0.8	843484	WORD_OFF	n/a	n/a	THUMB	8	0	7	[0, 0, 0]	n/a	0	1	0	n/a	n/a	0.0	0	0	0	FR3	0	R1217T
832.303	1.6	844284	WORD	n/a	wordpools/wordpool.txt	LAKE	9	1	7	[0, 0, 0]	n/a	0	1	0	n/a	n/a	0.0	0	0	0	FR3	0	R1217T
833.92	0.9	845900	WORD_OFF	n/a	n/a	LAKE	9	0	7	[0, 0, 0]	n/a	0	1	0	n/a	n/a	0.0	0	0	0	FR3	0	R1217T
834.82	1.6	846800	WORD	n/a	wordpools/wordpool.txt	PASTE	10	0	7	[0, 0, 0]	n/a	0	1	0	n/a	n/a	0.0	0	0	0	FR3	0	R1217T
836.344	0.0	848324	STIM_ON	n/a	n/a	PASTE	10	0	7	[0, 0, 0]	n/a	1	1	500	LC9	LC10	750.0	200	100	300	FR3	0	R1217T
836.437	0.407	848417	WORD_OFF	n/a	n/a	PASTE	10	0	7	[0, 0, 0]	n/a	1	1	500	LC9	LC10	750.0	200	100	300	FR3	0	R1217T
836.844	0.477	848824	STIM_OFF	n/a	n/a	n/a	10	0	7	[0, 0, 0]	n/a	0	1	500	LC9	LC10	750.0	200	100	300	FR3	0	R1217T
837.321	1.6	849301	WORD	n/a	wordpools/wordpool.txt	SEAT	11	0	7	[0, 0, 0]	n/a	0	1	0	n/a	n/a	0.0	0	0	0	FR3	0	R1217T
838.938	0.866	850918	WORD_OFF	n/a	n/a	SEAT	11	0	7	[0, 0, 0]	n/a	0	1	0	n/a	n/a	0.0	0	0	0	FR3	0	R1217T
839.804	1.6	851784	WORD	n/a	wordpools/wordpool.txt	POND	12	0	7	[0, 0, 0]	n/a	0	1	0	n/a	n/a	0.0	0	0	0	FR3	0	R1217T
841.421	0.0	853401	WORD_OFF	n/a	n/a	POND	12	0	7	[0, 0, 0]	n/a	0	1	0	n/a	n/a	0.0	0	0	0	FR3	0	R1217T
841.421	0.001	853401	DISTRACT_START	n/a	n/a	n/a	-999	0	7	[0, 0, 0]	n/a	0	1	0	n/a	n/a	0.0	0	0	0	FR3	0	R1217T
841.422	0.016	853402	START	n/a	n/a	n/a	-999	0	7	[-999, -999, -999]	n/a	0	1	0	n/a	n/a	0.0	0	0	0	FR3	0	R1217T
841.438	7.051	853418	PROB	7.026	n/a	n/a	-999	0	7	[8, 6, 4]	18	0	1	0	n/a	n/a	0.0	0	0	0	FR3	0	R1217T
848.489	4.633	860469	PROB	4.607	n/a	n/a	-999	0	7	[1, 2, 4]	7	0	1	0	n/a	n/a	0.0	0	0	0	FR3	0	R1217T
853.122	3.719	865101	PROB	3.687	n/a	n/a	-999	0	7	[4, 4, 7]	15	0	1	0	n/a	n/a	0.0	0	0	0	FR3	0	R1217T
856.841	5.48	868820	PROB	5.48	n/a	n/a	-999	0	7	[7, 5, 1]	13	0	1	0	n/a	n/a	0.0	0	0	0	FR3	0	R1217T
862.321	0.021	874300	STOP	n/a	n/a	n/a	-999	0	7	[-999, -999, -999]	n/a	0	1	0	n/a	n/a	0.0	0	0	0	FR3	0	R1217T
862.342	0.55	874321	DISTRACT_END	n/a	n/a	n/a	-999	0	7	[0, 0, 0]	n/a	0	1	0	n/a	n/a	0.0	0	0	0	FR3	0	R1217T
862.892	0.5	874871	RETRIEVAL_ORIENT	n/a	n/a	n/a	-999	0	7	[0, 0, 0]	n/a	0	1	0	n/a	n/a	0.0	0	0	0	FR3	0	R1217T
863.41	0.989	875389	REC_START	n/a	n/a	n/a	-999	0	7	[0, 0, 0]	n/a	0	1	0	n/a	n/a	0.0	0	0	0	FR3	0	R1217T
864.399	1.259	876378	REC_WORD	0.989	n/a	CHIEF	7	1	7	[0, 0, 0]	n/a	0	1	0	n/a	n/a	0.0	0	0	0	FR3	0	R1217T
865.658	2.843	877637	REC_WORD_VV	2.248	n/a	<>	-999	0	7	[0, 0, 0]	n/a	0	1	0	n/a	n/a	0.0	0	0	0	FR3	0	R1217T
868.501	0.904	880479	REC_WORD	5.091	n/a	THUMB	8	1	7	[0, 0, 0]	n/a	0	1	0	n/a	n/a	0.0	0	0	0	FR3	0	R1217T
869.405	4.539	881383	REC_WORD	5.995	n/a	LAKE	9	1	7	[0, 0, 0]	n/a	0	1	0	n/a	n/a	0.0	0	0	0	FR3	0	R1217T
873.944	5.319	885922	REC_WORD	10.534	n/a	KNEE	-999	0	7	[0, 0, 0]	n/a	0	1	0	n/a	n/a	0.0	0	0	0	FR3	0	R1217T
879.263	1.228	891241	REC_WORD	15.853	n/a	THUMB	8	1	7	[0, 0, 0]	n/a	0	1	0	n/a	n/a	0.0	0	0	0	FR3	0	R1217T
880.491	3.492	892469	REC_WORD	17.081	n/a	NAIL	-999	0	7	[0, 0, 0]	n/a	0	1	0	n/a	n/a	0.0	0	0	0	FR3	0	R1217T
883.983	9.439	895960	REC_WORD	20.573	n/a	DRIVE	-999	0	7	[0, 0, 0]	n/a	0	1	0	n/a	n/a	0.0	0	0	0	FR3	0	R1217T
893.422	73.989	905399	REC_END	n/a	n/a	n/a	-999	0	7	[0, 0, 0]	n/a	0	1	0	n/a	n/a	0.0	0	0	0	FR3	0	R1217T
967.411	0.5	979383	TRIAL	n/a	n/a	n/a	-999	0	8	[0, 0, 0]	n/a	0	1	0	n/a	n/a	0.0	0	0	0	FR3	0	R1217T
967.911	10.0	979883	COUNTDOWN_START	n/a	n/a	n/a	-999	0	8	[0, 0, 0]	n/a	0	1	0	n/a	n/a	0.0	0	0	0	FR3	0	R1217T
978.339	0.007	990311	COUNTDOWN_END	n/a	n/a	n/a	-999	0	8	[0, 0, 0]	n/a	0	1	0	n/a	n/a	0.0	0	0	0	FR3	0	R1217T
978.346	1.6	990318	ORIENT	n/a	n/a	n/a	-999	0	8	[0, 0, 0]	n/a	0	1	0	n/a	n/a	0.0	0	0	0	FR3	0	R1217T
979.963	2.034	991935	ORIENT_OFF	n/a	n/a	n/a	-999	0	8	[0, 0, 0]	n/a	0	1	0	n/a	n/a	0.0	0	0	0	FR3	0	R1217T
981.997	1.6	993969	WORD	n/a	wordpools/wordpool.txt	ROCK	1	0	8	[0, 0, 0]	n/a	0	1	0	n/a	n/a	0.0	0	0	0	FR3	0	R1217T
983.614	0.916	995585	WORD_OFF	n/a	n/a	ROCK	1	0	8	[0, 0, 0]	n/a	0	1	0	n/a	n/a	0.0	0	0	0	FR3	0	R1217T
984.53	1.6	996501	WORD	n/a	wordpools/wordpool.txt	STEM	2	0	8	[0, 0, 0]	n/a	0	1	0	n/a	n/a	0.0	0	0	0	FR3	0	R1217T
986.061	0.0	998032	STIM_ON	n/a	n/a	STEM	2	0	8	[0, 0, 0]	n/a	1	1	500	LC9	LC10	750.0	200	100	300	FR3	0	R1217T
986.147	0.414	998118	WORD_OFF	n/a	n/a	STEM	2	0	8	[0, 0, 0]	n/a	1	1	500	LC9	LC10	750.0	200	100	300	FR3	0	R1217T
986.561	0.354	998532	STIM_OFF	n/a	n/a	n/a	2	0	8	[0, 0, 0]	n/a	0	1	500	LC9	LC10	750.0	200	100	300	FR3	0	R1217T
986.915	1.6	998886	WORD	n/a	wordpools/wordpool.txt	JEEP	3	0	8	[0, 0, 0]	n/a	0	1	0	n/a	n/a	0.0	0	0	0	FR3	0	R1217T
988.452	0.0	1000423	STIM_ON	n/a	n/a	JEEP	3	0	8	[0, 0, 0]	n/a	1	1	500	LC9	LC10	750.0	200	100	300	FR3	0	R1217T
988.532	0.42	1000503	WORD_OFF	n/a	n/a	JEEP	3	0	8	[0, 0, 0]	n/a	1	1	500	LC9	LC10	750.0	200	100	300	FR3	0	R1217T
988.952	0.496	1000923	STIM_OFF	n/a	n/a	n/a	3	0	8	[0, 0, 0]	n/a	0	1	500	LC9	LC10	750.0	200	100	300	FR3	0	R1217T
989.448	1.6	1001419	WORD	n/a	wordpools/wordpool.txt	THREAD	4	0	8	[0, 0, 0]	n/a	0	1	0	n/a	n/a	0.0	0	0	0	FR3	0	R1217T
990.976	0.0	1002947	STIM_ON	n/a	n/a	THREAD	4	0	8	[0, 0, 0]	n/a	1	1	500	LC9	LC10	750.0	200	100	300	FR3	0	R1217T
991.064	0.412	1003035	WORD_OFF	n/a	n/a	THREAD	4	0	8	[0, 0, 0]	n/a	1	1	500	LC9	LC10	750.0	200	100	300	FR3	0	R1217T
991.476	0.373	1003447	STIM_OFF	n/a	n/a	n/a	4	0	8	[0, 0, 0]	n/a	0	1	500	LC9	LC10	750.0	200	100	300	FR3	0	R1217T
991.849	1.6	1003820	WORD	n/a	wordpools/wordpool.txt	MULE	5	1	8	[0, 0, 0]	n/a	0	1	0	n/a	n/a	0.0	0	0	0	FR3	0	R1217T
993.466	0.85	1005437	WORD_OFF	n/a	n/a	MULE	5	0	8	[0, 0, 0]	n/a	0	1	0	n/a	n/a	0.0	0	0	0	FR3	0	R1217T
994.316	1.6	1006287	WORD	n/a	wordpools/wordpool.txt	WORLD	6	1	8	[0, 0, 0]	n/a	0	1	0	n/a	n/a	0.0	0	0	0	FR3	0	R1217T
995.933	0.833	1007904	WORD_OFF	n/a	n/a	WORLD	6	0	8	[0, 0, 0]	n/a	0	1	0	n/a	n/a	0.0	0	0	0	FR3	0	R1217T
996.766	1.6	1008737	WORD	n/a	wordpools/wordpool.txt	LEAF	7	1	8	[0, 0, 0]	n/a	0	1	0	n/a	n/a	0.0	0	0	0	FR3	0	R1217T
998.302	0.0	1010273	STIM_ON	n/a	n/a	LEAF	7	1	8	[0, 0, 0]	n/a	1	1	500	LC9	LC10	750.0	200	100	300	FR3	0	R1217T
998.383	0.419	1010354	WORD_OFF	n/a	n/a	LEAF	7	0	8	[0, 0, 0]	n/a	1	1	500	LC9	LC10	750.0	200	100	300	FR3	0	R1217T
998.802	0.498	1010773	STIM_OFF	n/a	n/a	n/a	7	0	8	[0, 0, 0]	n/a	0	1	500	LC9	LC10	750.0	200	100	300	FR3	0	R1217T
999.3	1.6	1011271	WORD	n/a	wordpools/wordpool.txt	INK	8	0	8	[0, 0, 0]	n/a	0	1	0	n/a	n/a	0.0	0	0	0	FR3	0	R1217T
1000.917	0.917	1012887	WORD_OFF	n/a	n/a	INK	8	0	8	[0, 0, 0]	n/a	0	1	0	n/a	n/a	0.0	0	0	0	FR3	0	R1217T
1001.834	1.6	1013804	WORD	n/a	wordpools/wordpool.txt	TOOTH	9	0	8	[0, 0, 0]	n/a	0	1	0	n/a	n/a	0.0	0	0	0	FR3	0	R1217T
1003.451	0.917	1015421	WORD_OFF	n/a	n/a	TOOTH	9	0	8	[0, 0, 0]	n/a	0	1	0	n/a	n/a	0.0	0	0	0	FR3	0	R1217T
1004.368	1.6	1016338	WORD	n/a	wordpools/wordpool.txt	VEST	10	0	8	[0, 0, 0]	n/a	0	1	0	n/a	n/a	0.0	0	0	0	FR3	0	R1217T
1005.985	0.8	1017955	WORD_OFF	n/a	n/a	VEST	10	0	8	[0, 0, 0]	n/a	0	1	0	n/a	n/a	0.0	0	0	0	FR3	0	R1217T
1006.785	1.6	1018755	WORD	n/a	wordpools/wordpool.txt	WEB	11	0	8	[0, 0, 0]	n/a	0	1	0	n/a	n/a	0.0	0	0	0	FR3	0	R1217T
1008.402	0.9	1020372	WORD_OFF	n/a	n/a	WEB	11	0	8	[0, 0, 0]	n/a	0	1	0	n/a	n/a	0.0	0	0	0	FR3	0	R1217T
1009.302	1.6	1021272	WORD	n/a	wordpools/wordpool.txt	BLOOM	12	1	8	[0, 0, 0]	n/a	0	1	0	n/a	n/a	0.0	0	0	0	FR3	0	R1217T
1010.919	0.0	1022889	DISTRACT_START	n/a	n/a	n/a	-999	0	8	[0, 0, 0]	n/a	0	1	0	n/a	n/a	0.0	0	0	0	FR3	0	R1217T
1010.919	0.001	1022889	WORD_OFF	n/a	n/a	BLOOM	12	0	8	[0, 0, 0]	n/a	0	1	0	n/a	n/a	0.0	0	0	0	FR3	0	R1217T
1010.92	0.016	1022890	START	n/a	n/a	n/a	-999	0	8	[-999, -999, -999]	n/a	0	1	0	n/a	n/a	0.0	0	0	0	FR3	0	R1217T
1010.936	7.618	1022906	PROB	7.584	n/a	n/a	-999	0	8	[6, 6, 4]	14	0	1	0	n/a	n/a	0.0	0	0	0	FR3	0	R1217T
1018.554	3.834	1030523	PROB	3.8	n/a	n/a	-999	0	8	[3, 9, 1]	13	0	1	0	n/a	n/a	0.0	0	0	0	FR3	0	R1217T
1022.388	4.05	1034357	PROB	4.021	n/a	n/a	-999	0	8	[9, 2, 9]	20	0	1	0	n/a	n/a	0.0	0	0	0	FR3	0	R1217T
1026.438	2.734	1038407	PROB	2.698	n/a	n/a	-999	0	8	[6, 2, 3]	11	0	1	0	n/a	n/a	0.0	0	0	0	FR3	0	R1217T
1029.172	10.997	1041141	PROB	10.997	n/a	n/a	-999	0	8	[1, 8, 9]	18	0	1	0	n/a	n/a	0.0	0	0	0	FR3	0	R1217T
1040.169	0.022	1052137	STOP	n/a	n/a	n/a	-999	0	8	[-999, -999, -999]	n/a	0	1	0	n/a	n/a	0.0	0	0	0	FR3	0	R1217T
1040.191	0.583	1052159	DISTRACT_END	n/a	n/a	n/a	-999	0	8	[0, 0, 0]	n/a	0	1	0	n/a	n/a	0.0	0	0	0	FR3	0	R1217T
1040.774	0.5	1052742	RETRIEVAL_ORIENT	n/a	n/a	n/a	-999	0	8	[0, 0, 0]	n/a	0	1	0	n/a	n/a	0.0	0	0	0	FR3	0	R1217T
1041.292	1.056	1053260	REC_START	n/a	n/a	n/a	-999	0	8	[0, 0, 0]	n/a	0	1	0	n/a	n/a	0.0	0	0	0	FR3	0	R1217T
1042.348	0.64	1054316	REC_WORD	1.056	n/a	MULE	5	1	8	[0, 0, 0]	n/a	0	1	0	n/a	n/a	0.0	0	0	0	FR3	0	R1217T
1042.988	1.931	1054956	REC_WORD	1.696	n/a	WORLD	6	1	8	[0, 0, 0]	n/a	0	1	0	n/a	n/a	0.0	0	0	0	FR3	0	R1217T
1044.919	2.172	1056887	REC_WORD	3.627	n/a	LEAF	7	1	8	[0, 0, 0]	n/a	0	1	0	n/a	n/a	0.0	0	0	0	FR3	0	R1217T
1047.091	1.528	1059059	REC_WORD	5.799	n/a	BLOOM	12	1	8	[0, 0, 0]	n/a	0	1	0	n/a	n/a	0.0	0	0	0	FR3	0	R1217T
1048.619	22.685	1060587	REC_WORD	7.327	n/a	VAN	-999	0	8	[0, 0, 0]	n/a	0	1	0	n/a	n/a	0.0	0	0	0	FR3	0	R1217T
1071.304	5.51	1083270	REC_END	n/a	n/a	n/a	-999	0	8	[0, 0, 0]	n/a	0	1	0	n/a	n/a	0.0	0	0	0	FR3	0	R1217T
1076.814	0.5	1088780	TRIAL	n/a	n/a	n/a	-999	0	9	[0, 0, 0]	n/a	0	1	0	n/a	n/a	0.0	0	0	0	FR3	0	R1217T
1077.314	10.0	1089280	COUNTDOWN_START	n/a	n/a	n/a	-999	0	9	[0, 0, 0]	n/a	0	1	0	n/a	n/a	0.0	0	0	0	FR3	0	R1217T
1087.742	0.008	1099707	COUNTDOWN_END	n/a	n/a	n/a	-999	0	9	[0, 0, 0]	n/a	0	1	0	n/a	n/a	0.0	0	0	0	FR3	0	R1217T
1087.75	1.6	1099715	ORIENT	n/a	n/a	n/a	-999	0	9	[0, 0, 0]	n/a	0	1	0	n/a	n/a	0.0	0	0	0	FR3	0	R1217T
1089.366	2.084	1101331	ORIENT_OFF	n/a	n/a	n/a	-999	0	9	[0, 0, 0]	n/a	0	1	0	n/a	n/a	0.0	0	0	0	FR3	0	R1217T
1091.45	1.6	1103415	WORD	n/a	wordpools/wordpool.txt	SHARK	1	0	9	[0, 0, 0]	n/a	0	1	0	n/a	n/a	0.0	0	0	0	FR3	0	R1217T
1093.066	0.851	1105031	WORD_OFF	n/a	n/a	SHARK	1	0	9	[0, 0, 0]	n/a	0	1	0	n/a	n/a	0.0	0	0	0	FR3	0	R1217T
1093.917	1.6	1105882	WORD	n/a	wordpools/wordpool.txt	FISH	2	0	9	[0, 0, 0]	n/a	0	1	0	n/a	n/a	0.0	0	0	0	FR3	0	R1217T
1095.534	0.984	1107499	WORD_OFF	n/a	n/a	FISH	2	0	9	[0, 0, 0]	n/a	0	1	0	n/a	n/a	0.0	0	0	0	FR3	0	R1217T
1096.518	1.6	1108483	WORD	n/a	wordpools/wordpool.txt	BALL	3	0	9	[0, 0, 0]	n/a	0	1	0	n/a	n/a	0.0	0	0	0	FR3	0	R1217T
1098.062	0.0	1110027	STIM_ON	n/a	n/a	BALL	3	0	9	[0, 0, 0]	n/a	1	1	500	LC9	LC10	750.0	200	100	300	FR3	0	R1217T
1098.134	0.428	1110099	WORD_OFF	n/a	n/a	BALL	3	0	9	[0, 0, 0]	n/a	1	1	500	LC9	LC10	750.0	200	100	300	FR3	0	R1217T
1098.562	0.472	1110527	STIM_OFF	n/a	n/a	n/a	3	0	9	[0, 0, 0]	n/a	0	1	500	LC9	LC10	750.0	200	100	300	FR3	0	R1217T
1099.034	1.6	1110999	WORD	n/a	wordpools/wordpool.txt	MAIL	4	0	9	[0, 0, 0]	n/a	0	1	0	n/a	n/a	0.0	0	0	0	FR3	0	R1217T
1100.573	0.0	1112537	STIM_ON	n/a	n/a	MAIL	4	0	9	[0, 0, 0]	n/a	1	1	500	LC9	LC10	750.0	200	100	300	FR3	0	R1217T
1100.652	0.421	1112616	WORD_OFF	n/a	n/a	MAIL	4	0	9	[0, 0, 0]	n/a	1	1	500	LC9	LC10	750.0	200	100	300	FR3	0	R1217T
1101.073	0.529	1113037	STIM_OFF	n/a	n/a	n/a	4	0	9	[0, 0, 0]	n/a	0	1	500	LC9	LC10	750.0	200	100	300	FR3	0	R1217T
1101.602	1.6	1113566	WORD	n/a	wordpools/wordpool.txt	BEAN	5	0	9	[0, 0, 0]	n/a	0	1	0	n/a	n/a	0.0	0	0	0	FR3	0	R1217T
1103.148	0.0	1115112	STIM_ON	n/a	n/a	BEAN	5	0	9	[0, 0, 0]	n/a	1	1	500	LC9	LC10	750.0	200	100	300	FR3	0	R1217T
1103.219	0.429	1115183	WORD_OFF	n/a	n/a	BEAN	5	0	9	[0, 0, 0]	n/a	1	1	500	LC9	LC10	750.0	200	100	300	FR3	0	R1217T
1103.648	0.47	1115612	STIM_OFF	n/a	n/a	n/a	5	0	9	[0, 0, 0]	n/a	0	1	500	LC9	LC10	750.0	200	100	300	FR3	0	R1217T
1104.118	1.6	1116082	WORD	n/a	wordpools/wordpool.txt	WORM	6	0	9	[0, 0, 0]	n/a	0	1	0	n/a	n/a	0.0	0	0	0	FR3	0	R1217T
1105.678	0.0	1117642	STIM_ON	n/a	n/a	WORM	6	0	9	[0, 0, 0]	n/a	1	1	500	LC9	LC10	750.0	200	100	300	FR3	0	R1217T
1105.736	0.442	1117700	WORD_OFF	n/a	n/a	WORM	6	0	9	[0, 0, 0]	n/a	1	1	500	LC9	LC10	750.0	200	100	300	FR3	0	R1217T
1106.178	0.542	1118142	STIM_OFF	n/a	n/a	n/a	6	0	9	[0, 0, 0]	n/a	0	1	500	LC9	LC10	750.0	200	100	300	FR3	0	R1217T
1106.72	1.6	1118684	WORD	n/a	wordpools/wordpool.txt	BOAT	7	0	9	[0, 0, 0]	n/a	0	1	0	n/a	n/a	0.0	0	0	0	FR3	0	R1217T
1108.337	0.883	1120301	WORD_OFF	n/a	n/a	BOAT	7	0	9	[0, 0, 0]	n/a	0	1	0	n/a	n/a	0.0	0	0	0	FR3	0	R1217T
1109.22	1.6	1121184	WORD	n/a	wordpools/wordpool.txt	PANTS	8	0	9	[0, 0, 0]	n/a	0	1	0	n/a	n/a	0.0	0	0	0	FR3	0	R1217T
1110.765	0.0	1122729	STIM_ON	n/a	n/a	PANTS	8	0	9	[0, 0, 0]	n/a	1	1	500	LC9	LC10	750.0	200	100	300	FR3	0	R1217T
1110.837	0.428	1122801	WORD_OFF	n/a	n/a	PANTS	8	0	9	[0, 0, 0]	n/a	1	1	500	LC9	LC10	750.0	200	100	300	FR3	0	R1217T
1111.265	0.489	1123229	STIM_OFF	n/a	n/a	n/a	8	0	9	[0, 0, 0]	n/a	0	1	500	LC9	LC10	750.0	200	100	300	FR3	0	R1217T
1111.754	1.6	1123718	WORD	n/a	wordpools/wordpool.txt	BOARD	9	0	9	[0, 0, 0]	n/a	0	1	0	n/a	n/a	0.0	0	0	0	FR3	0	R1217T
1113.294	0.0	1125258	STIM_ON	n/a	n/a	BOARD	9	0	9	[0, 0, 0]	n/a	1	1	500	LC9	LC10	750.0	200	100	300	FR3	0	R1217T
1113.371	0.424	1125335	WORD_OFF	n/a	n/a	BOARD	9	0	9	[0, 0, 0]	n/a	1	1	500	LC9	LC10	750.0	200	100	300	FR3	0	R1217T
1113.795	0.509	1125759	STIM_OFF	n/a	n/a	n/a	9	0	9	[0, 0, 0]	n/a	0	1	500	LC9	LC10	750.0	200	100	300	FR3	0	R1217T
1114.304	1.6	1126268	WORD	n/a	wordpools/wordpool.txt	HOUSE	10	0	9	[0, 0, 0]	n/a	0	1	0	n/a	n/a	0.0	0	0	0	FR3	0	R1217T
1115.921	0.867	1127885	WORD_OFF	n/a	n/a	HOUSE	10	0	9	[0, 0, 0]	n/a	0	1	0	n/a	n/a	0.0	0	0	0	FR3	0	R1217T
1116.788	1.6	1128751	WORD	n/a	wordpools/wordpool.txt	TOE	11	0	9	[0, 0, 0]	n/a	0	1	0	n/a	n/a	0.0	0	0	0	FR3	0	R1217T
1118.405	0.917	1130368	WORD_OFF	n/a	n/a	TOE	11	0	9	[0, 0, 0]	n/a	0	1	0	n/a	n/a	0.0	0	0	0	FR3	0	R1217T
1119.322	1.6	1131285	WORD	n/a	wordpools/wordpool.txt	KEY	12	0	9	[0, 0, 0]	n/a	0	1	0	n/a	n/a	0.0	0	0	0	FR3	0	R1217T
1120.863	0.0	1132826	STIM_ON	n/a	n/a	KEY	12	0	9	[0, 0, 0]	n/a	1	1	500	LC9	LC10	750.0	200	100	300	FR3	0	R1217T
1120.939	0.0	1132902	WORD_OFF	n/a	n/a	KEY	12	0	9	[0, 0, 0]	n/a	1	1	500	LC9	LC10	750.0	200	100	300	FR3	0	R1217T
1120.939	0.001	1132902	DISTRACT_START	n/a	n/a	n/a	-999	0	9	[0, 0, 0]	n/a	1	1	500	LC9	LC10	750.0	200	100	300	FR3	0	R1217T
1120.94	0.016	1132903	START	n/a	n/a	n/a	-999	0	9	[-999, -999, -999]	n/a	0	1	0	n/a	n/a	0.0	0	0	0	FR3	0	R1217T
1120.956	0.407	1132919	PROB	6.26	n/a	n/a	-999	0	9	[5, 8, 4]	17	0	1	0	n/a	n/a	0.0	0	0	0	FR3	0	R1217T
1121.363	5.877	1133326	STIM_OFF	n/a	n/a	n/a	-999	0	9	[0, 0, 0]	n/a	0	1	500	LC9	LC10	750.0	200	100	300	FR3	0	R1217T
1127.24	4.017	1139203	PROB	3.984	n/a	n/a	-999	0	9	[7, 9, 7]	23	0	1	0	n/a	n/a	0.0	0	0	0	FR3	0	R1217T
1131.257	4.901	1143220	PROB	4.872	n/a	n/a	-999	0	9	[3, 8, 9]	20	0	1	0	n/a	n/a	0.0	0	0	0	FR3	0	R1217T
1136.158	3.418	1148120	PROB	3.38	n/a	n/a	-999	0	9	[1, 1, 3]	5	0	1	0	n/a	n/a	0.0	0	0	0	FR3	0	R1217T
1139.576	14.818	1151538	PROB	14.818	n/a	n/a	-999	0	9	[8, 7, 6]	21	0	1	0	n/a	n/a	0.0	0	0	0	FR3	0	R1217T
1154.394	0.018	1166355	STOP	n/a	n/a	n/a	-999	0	9	[-999, -999, -999]	n/a	0	1	0	n/a	n/a	0.0	0	0	0	FR3	0	R1217T
1154.412	0.682	1166373	DISTRACT_END	n/a	n/a	n/a	-999	0	9	[0, 0, 0]	n/a	0	1	0	n/a	n/a	0.0	0	0	0	FR3	0	R1217T
1155.094	0.5	1167055	RETRIEVAL_ORIENT	n/a	n/a	n/a	-999	0	9	[0, 0, 0]	n/a	0	1	0	n/a	n/a	0.0	0	0	0	FR3	0	R1217T
1155.613	3.248	1167574	REC_START	n/a	n/a	n/a	-999	0	9	[0, 0, 0]	n/a	0	1	0	n/a	n/a	0.0	0	0	0	FR3	0	R1217T
1158.861	26.764	1170822	REC_WORD_VV	3.248	n/a	<>	-999	0	9	[0, 0, 0]	n/a	0	1	0	n/a	n/a	0.0	0	0	0	FR3	0	R1217T
1185.625	5.01	1197584	REC_END	n/a	n/a	n/a	-999	0	9	[0, 0, 0]	n/a	0	1	0	n/a	n/a	0.0	0	0	0	FR3	0	R1217T
1190.635	0.5	1202594	TRIAL	n/a	n/a	n/a	-999	0	10	[0, 0, 0]	n/a	0	0	0	n/a	n/a	0.0	0	0	0	FR3	0	R1217T
1191.135	10.0	1203094	COUNTDOWN_START	n/a	n/a	n/a	-999	0	10	[0, 0, 0]	n/a	0	0	0	n/a	n/a	0.0	0	0	0	FR3	0	R1217T
1201.563	0.007	1213521	COUNTDOWN_END	n/a	n/a	n/a	-999	0	10	[0, 0, 0]	n/a	0	0	0	n/a	n/a	0.0	0	0	0	FR3	0	R1217T
1201.57	1.6	1213528	ORIENT	n/a	n/a	n/a	-999	0	10	[0, 0, 0]	n/a	0	0	0	n/a	n/a	0.0	0	0	0	FR3	0	R1217T
1203.187	2.101	1215145	ORIENT_OFF	n/a	n/a	n/a	-999	0	10	[0, 0, 0]	n/a	0	0	0	n/a	n/a	0.0	0	0	0	FR3	0	R1217T
1205.288	1.6	1217246	WORD	n/a	wordpools/wordpool.txt	CUP	1	0	10	[0, 0, 0]	n/a	0	0	0	n/a	n/a	0.0	0	0	0	FR3	0	R1217T
1206.905	0.883	1218863	WORD_OFF	n/a	n/a	CUP	1	0	10	[0, 0, 0]	n/a	0	0	0	n/a	n/a	0.0	0	0	0	FR3	0	R1217T
1207.788	1.6	1219746	WORD	n/a	wordpools/wordpool.txt	ARM	2	0	10	[0, 0, 0]	n/a	0	0	0	n/a	n/a	0.0	0	0	0	FR3	0	R1217T
1209.405	0.867	1221363	WORD_OFF	n/a	n/a	ARM	2	0	10	[0, 0, 0]	n/a	0	0	0	n/a	n/a	0.0	0	0	0	FR3	0	R1217T
1210.272	1.6	1222230	WORD	n/a	wordpools/wordpool.txt	CLIFF	3	1	10	[0, 0, 0]	n/a	0	0	0	n/a	n/a	0.0	0	0	0	FR3	0	R1217T
1211.889	0.983	1223847	WORD_OFF	n/a	n/a	CLIFF	3	0	10	[0, 0, 0]	n/a	0	0	0	n/a	n/a	0.0	0	0	0	FR3	0	R1217T
1212.872	1.6	1224830	WORD	n/a	wordpools/wordpool.txt	CRANE	4	1	10	[0, 0, 0]	n/a	0	0	0	n/a	n/a	0.0	0	0	0	FR3	0	R1217T
1214.489	0.9	1226447	WORD_OFF	n/a	n/a	CRANE	4	0	10	[0, 0, 0]	n/a	0	0	0	n/a	n/a	0.0	0	0	0	FR3	0	R1217T
1215.389	1.6	1227347	WORD	n/a	wordpools/wordpool.txt	CART	5	1	10	[0, 0, 0]	n/a	0	0	0	n/a	n/a	0.0	0	0	0	FR3	0	R1217T
1217.005	0.902	1228962	WORD_OFF	n/a	n/a	CART	5	0	10	[0, 0, 0]	n/a	0	0	0	n/a	n/a	0.0	0	0	0	FR3	0	R1217T
1217.907	1.6	1229864	WORD	n/a	wordpools/wordpool.txt	PIE	6	0	10	[0, 0, 0]	n/a	0	0	0	n/a	n/a	0.0	0	0	0	FR3	0	R1217T
1219.523	0.817	1231480	WORD_OFF	n/a	n/a	PIE	6	0	10	[0, 0, 0]	n/a	0	0	0	n/a	n/a	0.0	0	0	0	FR3	0	R1217T
1220.34	1.6	1232297	WORD	n/a	wordpools/wordpool.txt	CUBE	7	0	10	[0, 0, 0]	n/a	0	0	0	n/a	n/a	0.0	0	0	0	FR3	0	R1217T
1221.957	0.867	1233914	WORD_OFF	n/a	n/a	CUBE	7	0	10	[0, 0, 0]	n/a	0	0	0	n/a	n/a	0.0	0	0	0	FR3	0	R1217T
1222.824	1.6	1234781	WORD	n/a	wordpools/wordpool.txt	CANE	8	0	10	[0, 0, 0]	n/a	0	0	0	n/a	n/a	0.0	0	0	0	FR3	0	R1217T
1224.441	0.783	1236398	WORD_OFF	n/a	n/a	CANE	8	0	10	[0, 0, 0]	n/a	0	0	0	n/a	n/a	0.0	0	0	0	FR3	0	R1217T
1225.224	1.6	1237181	WORD	n/a	wordpools/wordpool.txt	DEER	9	0	10	[0, 0, 0]	n/a	0	0	0	n/a	n/a	0.0	0	0	0	FR3	0	R1217T
1226.841	0.801	1238798	WORD_OFF	n/a	n/a	DEER	9	0	10	[0, 0, 0]	n/a	0	0	0	n/a	n/a	0.0	0	0	0	FR3	0	R1217T
1227.642	1.6	1239599	WORD	n/a	wordpools/wordpool.txt	PEAR	10	0	10	[0, 0, 0]	n/a	0	0	0	n/a	n/a	0.0	0	0	0	FR3	0	R1217T
1229.259	0.765	1241216	WORD_OFF	n/a	n/a	PEAR	10	0	10	[0, 0, 0]	n/a	0	0	0	n/a	n/a	0.0	0	0	0	FR3	0	R1217T
1230.024	1.6	1241981	WORD	n/a	wordpools/wordpool.txt	TAIL	11	0	10	[0, 0, 0]	n/a	0	0	0	n/a	n/a	0.0	0	0	0	FR3	0	R1217T
1231.642	0.801	1243599	WORD_OFF	n/a	n/a	TAIL	11	0	10	[0, 0, 0]	n/a	0	0	0	n/a	n/a	0.0	0	0	0	FR3	0	R1217T
1232.443	1.6	1244400	WORD	n/a	wordpools/wordpool.txt	SEAL	12	0	10	[0, 0, 0]	n/a	0	0	0	n/a	n/a	0.0	0	0	0	FR3	0	R1217T
1234.059	0.0	1246015	WORD_OFF	n/a	n/a	SEAL	12	0	10	[0, 0, 0]	n/a	0	0	0	n/a	n/a	0.0	0	0	0	FR3	0	R1217T
1234.059	0.0	1246015	DISTRACT_START	n/a	n/a	n/a	-999	0	10	[0, 0, 0]	n/a	0	0	0	n/a	n/a	0.0	0	0	0	FR3	0	R1217T
1234.059	0.016	1246015	START	n/a	n/a	n/a	-999	0	10	[-999, -999, -999]	n/a	0	0	0	n/a	n/a	0.0	0	0	0	FR3	0	R1217T
1234.075	10.786	1246031	PROB	10.75	n/a	n/a	-999	0	10	[9, 6, 2]	17	0	0	0	n/a	n/a	0.0	0	0	0	FR3	0	R1217T
1244.861	3.935	1256817	PROB	3.908	n/a	n/a	-999	0	10	[4, 7, 9]	20	0	0	0	n/a	n/a	0.0	0	0	0	FR3	0	R1217T
1248.796	3.534	1260752	PROB	3.501	n/a	n/a	-999	0	10	[7, 8, 2]	17	0	0	0	n/a	n/a	0.0	0	0	0	FR3	0	R1217T
1252.33	3.286	1264285	PROB	3.286	n/a	n/a	-999	0	10	[1, 1, 8]	10	0	0	0	n/a	n/a	0.0	0	0	0	FR3	0	R1217T
1255.616	0.014	1267571	STOP	n/a	n/a	n/a	-999	0	10	[-999, -999, -999]	n/a	0	0	0	n/a	n/a	0.0	0	0	0	FR3	0	R1217T
1255.63	0.516	1267585	DISTRACT_END	n/a	n/a	n/a	-999	0	10	[0, 0, 0]	n/a	0	0	0	n/a	n/a	0.0	0	0	0	FR3	0	R1217T
1256.146	0.5	1268101	RETRIEVAL_ORIENT	n/a	n/a	n/a	-999	0	10	[0, 0, 0]	n/a	0	0	0	n/a	n/a	0.0	0	0	0	FR3	0	R1217T
1256.665	1.454	1268620	REC_START	n/a	n/a	n/a	-999	0	10	[0, 0, 0]	n/a	0	0	0	n/a	n/a	0.0	0	0	0	FR3	0	R1217T
1258.119	0.756	1270074	REC_WORD	1.454	n/a	CLIFF	3	1	10	[0, 0, 0]	n/a	0	0	0	n/a	n/a	0.0	0	0	0	FR3	0	R1217T
1258.875	1.21	1270830	REC_WORD	2.21	n/a	CRANE	4	1	10	[0, 0, 0]	n/a	0	0	0	n/a	n/a	0.0	0	0	0	FR3	0	R1217T
1260.085	1.528	1272040	REC_WORD	3.42	n/a	CART	5	1	10	[0, 0, 0]	n/a	0	0	0	n/a	n/a	0.0	0	0	0	FR3	0	R1217T
1261.613	25.063	1273568	REC_WORD	4.948	n/a	CLUB	-999	0	10	[0, 0, 0]	n/a	0	0	0	n/a	n/a	0.0	0	0	0	FR3	0	R1217T
1286.676	79.507	1298629	REC_END	n/a	n/a	n/a	-999	0	10	[0, 0, 0]	n/a	0	0	0	n/a	n/a	0.0	0	0	0	FR3	0	R1217T
1366.183	0.5	1378131	TRIAL	n/a	n/a	n/a	-999	0	11	[0, 0, 0]	n/a	0	0	0	n/a	n/a	0.0	0	0	0	FR3	0	R1217T
1366.683	10.0	1378631	COUNTDOWN_START	n/a	n/a	n/a	-999	0	11	[0, 0, 0]	n/a	0	0	0	n/a	n/a	0.0	0	0	0	FR3	0	R1217T
1377.111	0.007	1389059	COUNTDOWN_END	n/a	n/a	n/a	-999	0	11	[0, 0, 0]	n/a	0	0	0	n/a	n/a	0.0	0	0	0	FR3	0	R1217T
1377.118	1.6	1389066	ORIENT	n/a	n/a	n/a	-999	0	11	[0, 0, 0]	n/a	0	0	0	n/a	n/a	0.0	0	0	0	FR3	0	R1217T
1378.736	1.967	1390684	ORIENT_OFF	n/a	n/a	n/a	-999	0	11	[0, 0, 0]	n/a	0	0	0	n/a	n/a	0.0	0	0	0	FR3	0	R1217T
1380.703	1.6	1392651	WORD	n/a	wordpools/wordpool.txt	PARK	1	1	11	[0, 0, 0]	n/a	0	0	0	n/a	n/a	0.0	0	0	0	FR3	0	R1217T
1382.32	0.983	1394268	WORD_OFF	n/a	n/a	PARK	1	0	11	[0, 0, 0]	n/a	0	0	0	n/a	n/a	0.0	0	0	0	FR3	0	R1217T
1383.303	1.6	1395250	WORD	n/a	wordpools/wordpool.txt	STRAW	2	0	11	[0, 0, 0]	n/a	0	0	0	n/a	n/a	0.0	0	0	0	FR3	0	R1217T
1384.92	0.767	1396867	WORD_OFF	n/a	n/a	STRAW	2	0	11	[0, 0, 0]	n/a	0	0	0	n/a	n/a	0.0	0	0	0	FR3	0	R1217T
1385.687	1.6	1397634	WORD	n/a	wordpools/wordpool.txt	GATE	3	1	11	[0, 0, 0]	n/a	0	0	0	n/a	n/a	0.0	0	0	0	FR3	0	R1217T
1387.304	0.934	1399251	WORD_OFF	n/a	n/a	GATE	3	0	11	[0, 0, 0]	n/a	0	0	0	n/a	n/a	0.0	0	0	0	FR3	0	R1217T
1388.238	1.6	1400185	WORD	n/a	wordpools/wordpool.txt	STREET	4	1	11	[0, 0, 0]	n/a	0	0	0	n/a	n/a	0.0	0	0	0	FR3	0	R1217T
1389.855	0.9	1401802	WORD_OFF	n/a	n/a	STREET	4	0	11	[0, 0, 0]	n/a	0	0	0	n/a	n/a	0.0	0	0	0	FR3	0	R1217T
1390.755	1.6	1402702	WORD	n/a	wordpools/wordpool.txt	CAVE	5	0	11	[0, 0, 0]	n/a	0	0	0	n/a	n/a	0.0	0	0	0	FR3	0	R1217T
1392.372	0.782	1404319	WORD_OFF	n/a	n/a	CAVE	5	0	11	[0, 0, 0]	n/a	0	0	0	n/a	n/a	0.0	0	0	0	FR3	0	R1217T
1393.154	1.6	1405101	WORD	n/a	wordpools/wordpool.txt	STEAK	6	0	11	[0, 0, 0]	n/a	0	0	0	n/a	n/a	0.0	0	0	0	FR3	0	R1217T
1394.772	0.884	1406719	WORD_OFF	n/a	n/a	STEAK	6	0	11	[0, 0, 0]	n/a	0	0	0	n/a	n/a	0.0	0	0	0	FR3	0	R1217T
1395.656	1.6	1407603	WORD	n/a	wordpools/wordpool.txt	BLUSH	7	0	11	[0, 0, 0]	n/a	0	0	0	n/a	n/a	0.0	0	0	0	FR3	0	R1217T
1397.272	0.883	1409219	WORD_OFF	n/a	n/a	BLUSH	7	0	11	[0, 0, 0]	n/a	0	0	0	n/a	n/a	0.0	0	0	0	FR3	0	R1217T
1398.155	1.6	1410102	WORD	n/a	wordpools/wordpool.txt	WOOD	8	0	11	[0, 0, 0]	n/a	0	0	0	n/a	n/a	0.0	0	0	0	FR3	0	R1217T
1399.773	0.917	1411719	WORD_OFF	n/a	n/a	WOOD	8	0	11	[0, 0, 0]	n/a	0	0	0	n/a	n/a	0.0	0	0	0	FR3	0	R1217T
1400.69	1.6	1412636	WORD	n/a	wordpools/wordpool.txt	TENT	9	0	11	[0, 0, 0]	n/a	0	0	0	n/a	n/a	0.0	0	0	0	FR3	0	R1217T
1402.307	0.95	1414253	WORD_OFF	n/a	n/a	TENT	9	0	11	[0, 0, 0]	n/a	0	0	0	n/a	n/a	0.0	0	0	0	FR3	0	R1217T
1403.257	1.6	1415203	WORD	n/a	wordpools/wordpool.txt	SPOON	10	0	11	[0, 0, 0]	n/a	0	0	0	n/a	n/a	0.0	0	0	0	FR3	0	R1217T
1404.874	0.9	1416820	WORD_OFF	n/a	n/a	SPOON	10	0	11	[0, 0, 0]	n/a	0	0	0	n/a	n/a	0.0	0	0	0	FR3	0	R1217T
1405.774	1.6	1417720	WORD	n/a	wordpools/wordpool.txt	HAT	11	0	11	[0, 0, 0]	n/a	0	0	0	n/a	n/a	0.0	0	0	0	FR3	0	R1217T
1407.391	0.9	1419337	WORD_OFF	n/a	n/a	HAT	11	0	11	[0, 0, 0]	n/a	0	0	0	n/a	n/a	0.0	0	0	0	FR3	0	R1217T
1408.291	1.6	1420237	WORD	n/a	wordpools/wordpool.txt	SHEEP	12	0	11	[0, 0, 0]	n/a	0	0	0	n/a	n/a	0.0	0	0	0	FR3	0	R1217T
1409.908	0.0	1421854	WORD_OFF	n/a	n/a	SHEEP	12	0	11	[0, 0, 0]	n/a	0	0	0	n/a	n/a	0.0	0	0	0	FR3	0	R1217T
1409.908	0.001	1421854	DISTRACT_START	n/a	n/a	n/a	-999	0	11	[0, 0, 0]	n/a	0	0	0	n/a	n/a	0.0	0	0	0	FR3	0	R1217T
1409.909	0.016	1421855	START	n/a	n/a	n/a	-999	0	11	[-999, -999, -999]	n/a	0	0	0	n/a	n/a	0.0	0	0	0	FR3	0	R1217T
1409.925	6.018	1421871	PROB	5.98	n/a	n/a	-999	0	11	[4, 7, 8]	19	0	0	0	n/a	n/a	0.0	0	0	0	FR3	0	R1217T
1415.943	5.301	1427888	PROB	5.267	n/a	n/a	-999	0	11	[4, 9, 5]	18	0	0	0	n/a	n/a	0.0	0	0	0	FR3	0	R1217T
1421.244	3.35	1433189	PROB	3.317	n/a	n/a	-999	0	11	[9, 6, 8]	23	0	0	0	n/a	n/a	0.0	0	0	0	FR3	0	R1217T
1424.594	9.687	1436539	PROB	9.687	n/a	n/a	-999	0	11	[4, 5, 9]	18	0	0	0	n/a	n/a	0.0	0	0	0	FR3	0	R1217T
1434.281	0.015	1446225	STOP	n/a	n/a	n/a	-999	0	11	[-999, -999, -999]	n/a	0	0	0	n/a	n/a	0.0	0	0	0	FR3	0	R1217T
1434.296	0.533	1446240	DISTRACT_END	n/a	n/a	n/a	-999	0	11	[0, 0, 0]	n/a	0	0	0	n/a	n/a	0.0	0	0	0	FR3	0	R1217T
1434.829	0.5	1446773	RETRIEVAL_ORIENT	n/a	n/a	n/a	-999	0	11	[0, 0, 0]	n/a	0	0	0	n/a	n/a	0.0	0	0	0	FR3	0	R1217T
1435.347	1.051	1447291	REC_START	n/a	n/a	n/a	-999	0	11	[0, 0, 0]	n/a	0	0	0	n/a	n/a	0.0	0	0	0	FR3	0	R1217T
1436.398	0.837	1448342	REC_WORD_VV	1.051	n/a	<>	-999	0	11	[0, 0, 0]	n/a	0	0	0	n/a	n/a	0.0	0	0	0	FR3	0	R1217T
1437.235	0.798	1449179	REC_WORD	1.888	n/a	PARK	1	1	11	[0, 0, 0]	n/a	0	0	0	n/a	n/a	0.0	0	0	0	FR3	0	R1217T
1438.033	0.525	1449977	REC_WORD	2.686	n/a	GATE	3	1	11	[0, 0, 0]	n/a	0	0	0	n/a	n/a	0.0	0	0	0	FR3	0	R1217T
1438.558	26.8	1450502	REC_WORD	3.211	n/a	STREET	4	1	11	[0, 0, 0]	n/a	0	0	0	n/a	n/a	0.0	0	0	0	FR3	0	R1217T
1465.358	5.144	1477301	REC_END	n/a	n/a	n/a	-999	0	11	[0, 0, 0]	n/a	0	0	0	n/a	n/a	0.0	0	0	0	FR3	0	R1217T
1470.502	0.5	1482444	TRIAL	n/a	n/a	n/a	-999	0	12	[0, 0, 0]	n/a	0	0	0	n/a	n/a	0.0	0	0	0	FR3	0	R1217T
1471.002	10.0	1482944	COUNTDOWN_START	n/a	n/a	n/a	-999	0	12	[0, 0, 0]	n/a	0	0	0	n/a	n/a	0.0	0	0	0	FR3	0	R1217T
1481.43	0.008	1493372	COUNTDOWN_END	n/a	n/a	n/a	-999	0	12	[0, 0, 0]	n/a	0	0	0	n/a	n/a	0.0	0	0	0	FR3	0	R1217T
1481.438	1.6	1493380	ORIENT	n/a	n/a	n/a	-999	0	12	[0, 0, 0]	n/a	0	0	0	n/a	n/a	0.0	0	0	0	FR3	0	R1217T
1483.054	2.017	1494995	ORIENT_OFF	n/a	n/a	n/a	-999	0	12	[0, 0, 0]	n/a	0	0	0	n/a	n/a	0.0	0	0	0	FR3	0	R1217T
1485.071	1.6	1497012	WORD	n/a	wordpools/wordpool.txt	CHIN	1	1	12	[0, 0, 0]	n/a	0	0	0	n/a	n/a	0.0	0	0	0	FR3	0	R1217T
1486.689	0.917	1498630	WORD_OFF	n/a	n/a	CHIN	1	0	12	[0, 0, 0]	n/a	0	0	0	n/a	n/a	0.0	0	0	0	FR3	0	R1217T
1487.606	1.6	1499547	WORD	n/a	wordpools/wordpool.txt	PLATE	2	0	12	[0, 0, 0]	n/a	0	0	0	n/a	n/a	0.0	0	0	0	FR3	0	R1217T
1489.222	0.783	1501163	WORD_OFF	n/a	n/a	PLATE	2	0	12	[0, 0, 0]	n/a	0	0	0	n/a	n/a	0.0	0	0	0	FR3	0	R1217T
1490.005	1.6	1501946	WORD	n/a	wordpools/wordpool.txt	CHEEK	3	1	12	[0, 0, 0]	n/a	0	0	0	n/a	n/a	0.0	0	0	0	FR3	0	R1217T
1491.623	0.95	1503564	WORD_OFF	n/a	n/a	CHEEK	3	0	12	[0, 0, 0]	n/a	0	0	0	n/a	n/a	0.0	0	0	0	FR3	0	R1217T
1492.573	1.6	1504514	WORD	n/a	wordpools/wordpool.txt	WHALE	4	0	12	[0, 0, 0]	n/a	0	0	0	n/a	n/a	0.0	0	0	0	FR3	0	R1217T
1494.19	0.883	1506131	WORD_OFF	n/a	n/a	WHALE	4	0	12	[0, 0, 0]	n/a	0	0	0	n/a	n/a	0.0	0	0	0	FR3	0	R1217T
1495.073	1.6	1507014	WORD	n/a	wordpools/wordpool.txt	PURSE	5	0	12	[0, 0, 0]	n/a	0	0	0	n/a	n/a	0.0	0	0	0	FR3	0	R1217T
1496.691	0.766	1508632	WORD_OFF	n/a	n/a	PURSE	5	0	12	[0, 0, 0]	n/a	0	0	0	n/a	n/a	0.0	0	0	0	FR3	0	R1217T
1497.457	1.6	1509398	WORD	n/a	wordpools/wordpool.txt	BEACH	6	0	12	[0, 0, 0]	n/a	0	0	0	n/a	n/a	0.0	0	0	0	FR3	0	R1217T
1499.073	0.768	1511014	WORD_OFF	n/a	n/a	BEACH	6	0	12	[0, 0, 0]	n/a	0	0	0	n/a	n/a	0.0	0	0	0	FR3	0	R1217T
1499.841	1.6	1511781	WORD	n/a	wordpools/wordpool.txt	FOOT	7	1	12	[0, 0, 0]	n/a	0	0	0	n/a	n/a	0.0	0	0	0	FR3	0	R1217T
1501.458	0.883	1513398	WORD_OFF	n/a	n/a	FOOT	7	0	12	[0, 0, 0]	n/a	0	0	0	n/a	n/a	0.0	0	0	0	FR3	0	R1217T
1502.341	1.6	1514281	WORD	n/a	wordpools/wordpool.txt	SOUP	8	0	12	[0, 0, 0]	n/a	0	0	0	n/a	n/a	0.0	0	0	0	FR3	0	R1217T
1503.959	0.866	1515899	WORD_OFF	n/a	n/a	SOUP	8	0	12	[0, 0, 0]	n/a	0	0	0	n/a	n/a	0.0	0	0	0	FR3	0	R1217T
1504.825	1.6	1516765	WORD	n/a	wordpools/wordpool.txt	OAK	9	0	12	[0, 0, 0]	n/a	0	0	0	n/a	n/a	0.0	0	0	0	FR3	0	R1217T
1506.442	1.0	1518382	WORD_OFF	n/a	n/a	OAK	9	0	12	[0, 0, 0]	n/a	0	0	0	n/a	n/a	0.0	0	0	0	FR3	0	R1217T
1507.442	1.6	1519382	WORD	n/a	wordpools/wordpool.txt	BADGE	10	0	12	[0, 0, 0]	n/a	0	0	0	n/a	n/a	0.0	0	0	0	FR3	0	R1217T
1509.058	0.835	1520998	WORD_OFF	n/a	n/a	BADGE	10	0	12	[0, 0, 0]	n/a	0	0	0	n/a	n/a	0.0	0	0	0	FR3	0	R1217T
1509.893	1.6	1521833	WORD	n/a	wordpools/wordpool.txt	TRASH	11	0	12	[0, 0, 0]	n/a	0	0	0	n/a	n/a	0.0	0	0	0	FR3	0	R1217T
1511.51	0.9	1523450	WORD_OFF	n/a	n/a	TRASH	11	0	12	[0, 0, 0]	n/a	0	0	0	n/a	n/a	0.0	0	0	0	FR3	0	R1217T
1512.41	1.6	1524350	WORD	n/a	wordpools/wordpool.txt	DOG	12	0	12	[0, 0, 0]	n/a	0	0	0	n/a	n/a	0.0	0	0	0	FR3	0	R1217T
1514.026	0.0	1525966	WORD_OFF	n/a	n/a	DOG	12	0	12	[0, 0, 0]	n/a	0	0	0	n/a	n/a	0.0	0	0	0	FR3	0	R1217T
1514.026	0.001	1525966	DISTRACT_START	n/a	n/a	n/a	-999	0	12	[0, 0, 0]	n/a	0	0	0	n/a	n/a	0.0	0	0	0	FR3	0	R1217T
1514.027	0.016	1525967	START	n/a	n/a	n/a	-999	0	12	[-999, -999, -999]	n/a	0	0	0	n/a	n/a	0.0	0	0	0	FR3	0	R1217T
1514.043	5.802	1525983	PROB	5.774	n/a	n/a	-999	0	12	[3, 4, 2]	9	0	0	0	n/a	n/a	0.0	0	0	0	FR3	0	R1217T
1519.845	3.166	1531784	PROB	3.141	n/a	n/a	-999	0	12	[1, 3, 7]	11	0	0	0	n/a	n/a	0.0	0	0	0	FR3	0	R1217T
1523.011	2.785	1534950	PROB	2.75	n/a	n/a	-999	0	12	[3, 1, 1]	5	0	0	0	n/a	n/a	0.0	0	0	0	FR3	0	R1217T
1525.796	5.283	1537735	PROB	5.251	n/a	n/a	-999	0	12	[1, 5, 6]	12	0	0	0	n/a	n/a	0.0	0	0	0	FR3	0	R1217T
1531.079	3.016	1543018	PROB	3.016	n/a	n/a	-999	0	12	[3, 9, 1]	13	0	0	0	n/a	n/a	0.0	0	0	0	FR3	0	R1217T
1534.095	0.018	1546033	STOP	n/a	n/a	n/a	-999	0	12	[-999, -999, -999]	n/a	0	0	0	n/a	n/a	0.0	0	0	0	FR3	0	R1217T
1534.113	0.668	1546051	DISTRACT_END	n/a	n/a	n/a	-999	0	12	[0, 0, 0]	n/a	0	0	0	n/a	n/a	0.0	0	0	0	FR3	0	R1217T
1534.781	0.5	1546719	RETRIEVAL_ORIENT	n/a	n/a	n/a	-999	0	12	[0, 0, 0]	n/a	0	0	0	n/a	n/a	0.0	0	0	0	FR3	0	R1217T
1535.298	1.312	1547236	REC_START	n/a	n/a	n/a	-999	0	12	[0, 0, 0]	n/a	0	0	0	n/a	n/a	0.0	0	0	0	FR3	0	R1217T
1536.61	1.215	1548548	REC_WORD	1.312	n/a	CHIN	1	1	12	[0, 0, 0]	n/a	0	0	0	n/a	n/a	0.0	0	0	0	FR3	0	R1217T
1537.825	0.654	1549763	REC_WORD	2.527	n/a	CHEEK	3	1	12	[0, 0, 0]	n/a	0	0	0	n/a	n/a	0.0	0	0	0	FR3	0	R1217T
1538.479	2.777	1550417	REC_WORD	3.181	n/a	FOOT	7	1	12	[0, 0, 0]	n/a	0	0	0	n/a	n/a	0.0	0	0	0	FR3	0	R1217T
1541.256	24.053	1553194	REC_WORD	5.958	n/a	BRAIN	-999	0	12	[0, 0, 0]	n/a	0	0	0	n/a	n/a	0.0	0	0	0	FR3	0	R1217T
1565.309	17.064	1577246	REC_END	n/a	n/a	n/a	-999	0	12	[0, 0, 0]	n/a	0	0	0	n/a	n/a	0.0	0	0	0	FR3	0	R1217T
1582.373	0.5	1594308	TRIAL	n/a	n/a	n/a	-999	0	13	[0, 0, 0]	n/a	0	0	0	n/a	n/a	0.0	0	0	0	FR3	0	R1217T
1582.873	10.0	1594808	COUNTDOWN_START	n/a	n/a	n/a	-999	0	13	[0, 0, 0]	n/a	0	0	0	n/a	n/a	0.0	0	0	0	FR3	0	R1217T
1593.301	0.007	1605236	COUNTDOWN_END	n/a	n/a	n/a	-999	0	13	[0, 0, 0]	n/a	0	0	0	n/a	n/a	0.0	0	0	0	FR3	0	R1217T
1593.308	1.6	1605243	ORIENT	n/a	n/a	n/a	-999	0	13	[0, 0, 0]	n/a	0	0	0	n/a	n/a	0.0	0	0	0	FR3	0	R1217T
1594.925	2.334	1606860	ORIENT_OFF	n/a	n/a	n/a	-999	0	13	[0, 0, 0]	n/a	0	0	0	n/a	n/a	0.0	0	0	0	FR3	0	R1217T
1597.259	1.6	1609194	WORD	n/a	wordpools/wordpool.txt	MOUTH	1	0	13	[0, 0, 0]	n/a	0	0	0	n/a	n/a	0.0	0	0	0	FR3	0	R1217T
1598.876	0.783	1610811	WORD_OFF	n/a	n/a	MOUTH	1	0	13	[0, 0, 0]	n/a	0	0	0	n/a	n/a	0.0	0	0	0	FR3	0	R1217T
1599.659	1.6	1611593	WORD	n/a	wordpools/wordpool.txt	SIGN	2	0	13	[0, 0, 0]	n/a	0	0	0	n/a	n/a	0.0	0	0	0	FR3	0	R1217T
1601.276	0.934	1613210	WORD_OFF	n/a	n/a	SIGN	2	0	13	[0, 0, 0]	n/a	0	0	0	n/a	n/a	0.0	0	0	0	FR3	0	R1217T
1602.21	1.6	1614144	WORD	n/a	wordpools/wordpool.txt	HORN	3	0	13	[0, 0, 0]	n/a	0	0	0	n/a	n/a	0.0	0	0	0	FR3	0	R1217T
1603.827	0.8	1615761	WORD_OFF	n/a	n/a	HORN	3	0	13	[0, 0, 0]	n/a	0	0	0	n/a	n/a	0.0	0	0	0	FR3	0	R1217T
1604.627	1.6	1616561	WORD	n/a	wordpools/wordpool.txt	AXE	4	0	13	[0, 0, 0]	n/a	0	0	0	n/a	n/a	0.0	0	0	0	FR3	0	R1217T
1606.244	0.983	1618178	WORD_OFF	n/a	n/a	AXE	4	0	13	[0, 0, 0]	n/a	0	0	0	n/a	n/a	0.0	0	0	0	FR3	0	R1217T
1607.227	1.6	1619161	WORD	n/a	wordpools/wordpool.txt	SLUSH	5	0	13	[0, 0, 0]	n/a	0	0	0	n/a	n/a	0.0	0	0	0	FR3	0	R1217T
1608.844	0.8	1620778	WORD_OFF	n/a	n/a	SLUSH	5	0	13	[0, 0, 0]	n/a	0	0	0	n/a	n/a	0.0	0	0	0	FR3	0	R1217T
1609.644	1.6	1621578	WORD	n/a	wordpools/wordpool.txt	DITCH	6	0	13	[0, 0, 0]	n/a	0	0	0	n/a	n/a	0.0	0	0	0	FR3	0	R1217T
1611.261	0.917	1623195	WORD_OFF	n/a	n/a	DITCH	6	0	13	[0, 0, 0]	n/a	0	0	0	n/a	n/a	0.0	0	0	0	FR3	0	R1217T
1612.178	1.6	1624112	WORD	n/a	wordpools/wordpool.txt	CAPE	7	1	13	[0, 0, 0]	n/a	0	0	0	n/a	n/a	0.0	0	0	0	FR3	0	R1217T
1613.795	0.817	1625729	WORD_OFF	n/a	n/a	CAPE	7	0	13	[0, 0, 0]	n/a	0	0	0	n/a	n/a	0.0	0	0	0	FR3	0	R1217T
1614.612	1.6	1626546	WORD	n/a	wordpools/wordpool.txt	FLAME	8	0	13	[0, 0, 0]	n/a	0	0	0	n/a	n/a	0.0	0	0	0	FR3	0	R1217T
1616.229	0.899	1628162	WORD_OFF	n/a	n/a	FLAME	8	0	13	[0, 0, 0]	n/a	0	0	0	n/a	n/a	0.0	0	0	0	FR3	0	R1217T
1617.128	1.6	1629061	WORD	n/a	wordpools/wordpool.txt	PHONE	9	0	13	[0, 0, 0]	n/a	0	0	0	n/a	n/a	0.0	0	0	0	FR3	0	R1217T
1618.746	0.767	1630679	WORD_OFF	n/a	n/a	PHONE	9	0	13	[0, 0, 0]	n/a	0	0	0	n/a	n/a	0.0	0	0	0	FR3	0	R1217T
1619.513	1.6	1631446	WORD	n/a	wordpools/wordpool.txt	BUSH	10	0	13	[0, 0, 0]	n/a	0	0	0	n/a	n/a	0.0	0	0	0	FR3	0	R1217T
1621.129	0.768	1633062	WORD_OFF	n/a	n/a	BUSH	10	0	13	[0, 0, 0]	n/a	0	0	0	n/a	n/a	0.0	0	0	0	FR3	0	R1217T
1621.897	1.6	1633830	WORD	n/a	wordpools/wordpool.txt	BOY	11	0	13	[0, 0, 0]	n/a	0	0	0	n/a	n/a	0.0	0	0	0	FR3	0	R1217T
1623.514	1.0	1635447	WORD_OFF	n/a	n/a	BOY	11	0	13	[0, 0, 0]	n/a	0	0	0	n/a	n/a	0.0	0	0	0	FR3	0	R1217T
1624.514	1.6	1636447	WORD	n/a	wordpools/wordpool.txt	DESK	12	0	13	[0, 0, 0]	n/a	0	0	0	n/a	n/a	0.0	0	0	0	FR3	0	R1217T
1626.13	0.0	1638063	DISTRACT_START	n/a	n/a	n/a	-999	0	13	[0, 0, 0]	n/a	0	0	0	n/a	n/a	0.0	0	0	0	FR3	0	R1217T
1626.13	0.0	1638063	WORD_OFF	n/a	n/a	DESK	12	0	13	[0, 0, 0]	n/a	0	0	0	n/a	n/a	0.0	0	0	0	FR3	0	R1217T
1626.13	0.016	1638063	START	n/a	n/a	n/a	-999	0	13	[-999, -999, -999]	n/a	0	0	0	n/a	n/a	0.0	0	0	0	FR3	0	R1217T
1626.146	4.868	1638079	PROB	4.839	n/a	n/a	-999	0	13	[8, 2, 4]	14	0	0	0	n/a	n/a	0.0	0	0	0	FR3	0	R1217T
1631.014	3.635	1642947	PROB	3.603	n/a	n/a	-999	0	13	[9, 1, 9]	19	0	0	0	n/a	n/a	0.0	0	0	0	FR3	0	R1217T
1634.649	7.001	1646581	PROB	6.968	n/a	n/a	-999	0	13	[4, 7, 6]	17	0	0	0	n/a	n/a	0.0	0	0	0	FR3	0	R1217T
1641.65	3.918	1653582	PROB	3.894	n/a	n/a	-999	0	13	[8, 7, 6]	22	0	0	0	n/a	n/a	0.0	0	0	0	FR3	0	R1217T
1645.568	6.633	1657500	PROB	6.633	n/a	n/a	-999	0	13	[6, 9, 9]	24	0	0	0	n/a	n/a	0.0	0	0	0	FR3	0	R1217T
1652.201	0.018	1664132	STOP	n/a	n/a	n/a	-999	0	13	[-999, -999, -999]	n/a	0	0	0	n/a	n/a	0.0	0	0	0	FR3	0	R1217T
1652.219	0.517	1664150	DISTRACT_END	n/a	n/a	n/a	-999	0	13	[0, 0, 0]	n/a	0	0	0	n/a	n/a	0.0	0	0	0	FR3	0	R1217T
1652.736	0.5	1664667	RETRIEVAL_ORIENT	n/a	n/a	n/a	-999	0	13	[0, 0, 0]	n/a	0	0	0	n/a	n/a	0.0	0	0	0	FR3	0	R1217T
1653.253	1.05	1665184	REC_START	n/a	n/a	n/a	-999	0	13	[0, 0, 0]	n/a	0	0	0	n/a	n/a	0.0	0	0	0	FR3	0	R1217T
1654.303	0.517	1666234	REC_WORD_VV	1.05	n/a	<>	-999	0	13	[0, 0, 0]	n/a	0	0	0	n/a	n/a	0.0	0	0	0	FR3	0	R1217T
1654.82	0.988	1666751	REC_WORD	1.567	n/a	CAKE	-999	0	13	[0, 0, 0]	n/a	0	0	0	n/a	n/a	0.0	0	0	0	FR3	0	R1217T
1655.808	2.112	1667739	REC_WORD	2.555	n/a	CAPE	7	1	13	[0, 0, 0]	n/a	0	0	0	n/a	n/a	0.0	0	0	0	FR3	0	R1217T
1657.92	6.674	1669851	REC_WORD_VV	4.667	n/a	<>	-999	0	13	[0, 0, 0]	n/a	0	0	0	n/a	n/a	0.0	0	0	0	FR3	0	R1217T
1664.594	18.67	1676525	REC_WORD	11.341	n/a	CURL	-999	0	13	[0, 0, 0]	n/a	0	0	0	n/a	n/a	0.0	0	0	0	FR3	0	R1217T
1683.264	5.912	1695193	REC_END	n/a	n/a	n/a	-999	0	13	[0, 0, 0]	n/a	0	0	0	n/a	n/a	0.0	0	0	0	FR3	0	R1217T
1689.176	0.5	1701105	TRIAL	n/a	n/a	n/a	-999	0	14	[0, 0, 0]	n/a	0	1	0	n/a	n/a	0.0	0	0	0	FR3	0	R1217T
1689.676	10.0	1701605	COUNTDOWN_START	n/a	n/a	n/a	-999	0	14	[0, 0, 0]	n/a	0	1	0	n/a	n/a	0.0	0	0	0	FR3	0	R1217T
1700.104	0.006	1712032	COUNTDOWN_END	n/a	n/a	n/a	-999	0	14	[0, 0, 0]	n/a	0	1	0	n/a	n/a	0.0	0	0	0	FR3	0	R1217T
1700.11	1.6	1712038	ORIENT	n/a	n/a	n/a	-999	0	14	[0, 0, 0]	n/a	0	1	0	n/a	n/a	0.0	0	0	0	FR3	0	R1217T
1701.728	2.034	1713656	ORIENT_OFF	n/a	n/a	n/a	-999	0	14	[0, 0, 0]	n/a	0	1	0	n/a	n/a	0.0	0	0	0	FR3	0	R1217T
1703.762	1.6	1715690	WORD	n/a	wordpools/wordpool.txt	SALT	1	1	14	[0, 0, 0]	n/a	0	1	0	n/a	n/a	0.0	0	0	0	FR3	0	R1217T
1705.378	1.001	1717306	WORD_OFF	n/a	n/a	SALT	1	0	14	[0, 0, 0]	n/a	0	1	0	n/a	n/a	0.0	0	0	0	FR3	0	R1217T
1706.379	1.6	1718307	WORD	n/a	wordpools/wordpool.txt	PET	2	0	14	[0, 0, 0]	n/a	0	1	0	n/a	n/a	0.0	0	0	0	FR3	0	R1217T
1707.996	0.983	1719924	WORD_OFF	n/a	n/a	PET	2	0	14	[0, 0, 0]	n/a	0	1	0	n/a	n/a	0.0	0	0	0	FR3	0	R1217T
1708.979	1.6	1720907	WORD	n/a	wordpools/wordpool.txt	SAIL	3	1	14	[0, 0, 0]	n/a	0	1	0	n/a	n/a	0.0	0	0	0	FR3	0	R1217T
1710.596	0.884	1722524	WORD_OFF	n/a	n/a	SAIL	3	0	14	[0, 0, 0]	n/a	0	1	0	n/a	n/a	0.0	0	0	0	FR3	0	R1217T
1711.48	1.6	1723408	WORD	n/a	wordpools/wordpool.txt	STEAM	4	0	14	[0, 0, 0]	n/a	0	1	0	n/a	n/a	0.0	0	0	0	FR3	0	R1217T
1713.095	0.852	1725023	WORD_OFF	n/a	n/a	STEAM	4	0	14	[0, 0, 0]	n/a	0	1	0	n/a	n/a	0.0	0	0	0	FR3	0	R1217T
1713.947	1.6	1725875	WORD	n/a	wordpools/wordpool.txt	SPONGE	5	1	14	[0, 0, 0]	n/a	0	1	0	n/a	n/a	0.0	0	0	0	FR3	0	R1217T
1715.564	0.95	1727491	WORD_OFF	n/a	n/a	SPONGE	5	0	14	[0, 0, 0]	n/a	0	1	0	n/a	n/a	0.0	0	0	0	FR3	0	R1217T
1716.514	1.6	1728441	WORD	n/a	wordpools/wordpool.txt	MOOSE	6	0	14	[0, 0, 0]	n/a	0	1	0	n/a	n/a	0.0	0	0	0	FR3	0	R1217T
1718.074	0.0	1730001	STIM_ON	n/a	n/a	MOOSE	6	0	14	[0, 0, 0]	n/a	1	1	500	LC9	LC10	750.0	200	100	300	FR3	0	R1217T
1718.13	0.444	1730057	WORD_OFF	n/a	n/a	MOOSE	6	0	14	[0, 0, 0]	n/a	1	1	500	LC9	LC10	750.0	200	100	300	FR3	0	R1217T
1718.574	0.556	1730501	STIM_OFF	n/a	n/a	n/a	6	0	14	[0, 0, 0]	n/a	0	1	500	LC9	LC10	750.0	200	100	300	FR3	0	R1217T
1719.13	1.6	1731057	WORD	n/a	wordpools/wordpool.txt	WALL	7	0	14	[0, 0, 0]	n/a	0	1	0	n/a	n/a	0.0	0	0	0	FR3	0	R1217T
1720.699	0.0	1732626	STIM_ON	n/a	n/a	WALL	7	0	14	[0, 0, 0]	n/a	1	1	500	LC9	LC10	750.0	200	100	300	FR3	0	R1217T
1720.748	0.451	1732675	WORD_OFF	n/a	n/a	WALL	7	0	14	[0, 0, 0]	n/a	1	1	500	LC9	LC10	750.0	200	100	300	FR3	0	R1217T
1721.199	0.466	1733126	STIM_OFF	n/a	n/a	n/a	7	0	14	[0, 0, 0]	n/a	0	1	500	LC9	LC10	750.0	200	100	300	FR3	0	R1217T
1721.665	1.6	1733592	WORD	n/a	wordpools/wordpool.txt	STORE	8	0	14	[0, 0, 0]	n/a	0	1	0	n/a	n/a	0.0	0	0	0	FR3	0	R1217T
1723.282	0.917	1735209	WORD_OFF	n/a	n/a	STORE	8	0	14	[0, 0, 0]	n/a	0	1	0	n/a	n/a	0.0	0	0	0	FR3	0	R1217T
1724.199	1.6	1736126	WORD	n/a	wordpools/wordpool.txt	SNAIL	9	1	14	[0, 0, 0]	n/a	0	1	0	n/a	n/a	0.0	0	0	0	FR3	0	R1217T
1725.816	1.0	1737743	WORD_OFF	n/a	n/a	SNAIL	9	0	14	[0, 0, 0]	n/a	0	1	0	n/a	n/a	0.0	0	0	0	FR3	0	R1217T
1726.816	1.6	1738743	WORD	n/a	wordpools/wordpool.txt	CASH	10	0	14	[0, 0, 0]	n/a	0	1	0	n/a	n/a	0.0	0	0	0	FR3	0	R1217T
1728.393	0.0	1740320	STIM_ON	n/a	n/a	CASH	10	0	14	[0, 0, 0]	n/a	1	1	500	LC9	LC10	750.0	200	100	300	FR3	0	R1217T
1728.433	0.46	1740360	WORD_OFF	n/a	n/a	CASH	10	0	14	[0, 0, 0]	n/a	1	1	500	LC9	LC10	750.0	200	100	300	FR3	0	R1217T
1728.893	0.473	1740820	STIM_OFF	n/a	n/a	n/a	10	0	14	[0, 0, 0]	n/a	0	1	500	LC9	LC10	750.0	200	100	300	FR3	0	R1217T
1729.366	1.6	1741293	WORD	n/a	wordpools/wordpool.txt	FILM	11	0	14	[0, 0, 0]	n/a	0	1	0	n/a	n/a	0.0	0	0	0	FR3	0	R1217T
1730.983	1.0	1742910	WORD_OFF	n/a	n/a	FILM	11	0	14	[0, 0, 0]	n/a	0	1	0	n/a	n/a	0.0	0	0	0	FR3	0	R1217T
1731.983	1.6	1743910	WORD	n/a	wordpools/wordpool.txt	ANT	12	0	14	[0, 0, 0]	n/a	0	1	0	n/a	n/a	0.0	0	0	0	FR3	0	R1217T
1733.6	0.0	1745526	WORD_OFF	n/a	n/a	ANT	12	0	14	[0, 0, 0]	n/a	0	1	0	n/a	n/a	0.0	0	0	0	FR3	0	R1217T
1733.6	0.001	1745526	DISTRACT_START	n/a	n/a	n/a	-999	0	14	[0, 0, 0]	n/a	0	1	0	n/a	n/a	0.0	0	0	0	FR3	0	R1217T
1733.601	0.016	1745527	START	n/a	n/a	n/a	-999	0	14	[-999, -999, -999]	n/a	0	1	0	n/a	n/a	0.0	0	0	0	FR3	0	R1217T
1733.617	3.851	1745543	PROB	3.824	n/a	n/a	-999	0	14	[6, 7, 7]	20	0	1	0	n/a	n/a	0.0	0	0	0	FR3	0	R1217T
1737.468	3.3	1749394	PROB	3.269	n/a	n/a	-999	0	14	[5, 7, 8]	20	0	1	0	n/a	n/a	0.0	0	0	0	FR3	0	R1217T
1740.768	5.885	1752694	PROB	5.849	n/a	n/a	-999	0	14	[2, 4, 7]	13	0	1	0	n/a	n/a	0.0	0	0	0	FR3	0	R1217T
1746.653	4.1	1758579	PROB	4.068	n/a	n/a	-999	0	14	[7, 6, 5]	18	0	1	0	n/a	n/a	0.0	0	0	0	FR3	0	R1217T
1750.753	6.912	1762678	PROB	6.912	n/a	n/a	-999	0	14	[7, 9, 6]	22	0	1	0	n/a	n/a	0.0	0	0	0	FR3	0	R1217T
1757.665	0.006	1769590	STOP	n/a	n/a	n/a	-999	0	14	[-999, -999, -999]	n/a	0	1	0	n/a	n/a	0.0	0	0	0	FR3	0	R1217T
1757.671	0.584	1769596	DISTRACT_END	n/a	n/a	n/a	-999	0	14	[0, 0, 0]	n/a	0	1	0	n/a	n/a	0.0	0	0	0	FR3	0	R1217T
1758.255	0.5	1770180	RETRIEVAL_ORIENT	n/a	n/a	n/a	-999	0	14	[0, 0, 0]	n/a	0	1	0	n/a	n/a	0.0	0	0	0	FR3	0	R1217T
1758.772	0.852	1770697	REC_START	n/a	n/a	n/a	-999	0	14	[0, 0, 0]	n/a	0	1	0	n/a	n/a	0.0	0	0	0	FR3	0	R1217T
1759.624	0.88	1771549	REC_WORD	0.852	n/a	SALT	1	1	14	[0, 0, 0]	n/a	0	1	0	n/a	n/a	0.0	0	0	0	FR3	0	R1217T
1760.504	1.921	1772429	REC_WORD	1.732	n/a	SNAIL	9	1	14	[0, 0, 0]	n/a	0	1	0	n/a	n/a	0.0	0	0	0	FR3	0	R1217T
1762.425	1.636	1774350	REC_WORD	3.653	n/a	SAIL	3	1	14	[0, 0, 0]	n/a	0	1	0	n/a	n/a	0.0	0	0	0	FR3	0	R1217T
1764.061	4.055	1775986	REC_WORD	5.289	n/a	SPONGE	5	1	14	[0, 0, 0]	n/a	0	1	0	n/a	n/a	0.0	0	0	0	FR3	0	R1217T
1768.116	15.418	1780040	REC_WORD	9.344	n/a	SIGN	-999	0	14	[0, 0, 0]	n/a	0	1	0	n/a	n/a	0.0	0	0	0	FR3	0	R1217T
1783.534	5.249	1795457	REC_WORD	24.762	n/a	SPONGE	5	1	14	[0, 0, 0]	n/a	0	1	0	n/a	n/a	0.0	0	0	0	FR3	0	R1217T
1788.783	5.528	1800706	REC_END	n/a	n/a	n/a	-999	0	14	[0, 0, 0]	n/a	0	1	0	n/a	n/a	0.0	0	0	0	FR3	0	R1217T
1794.311	0.5	1806234	TRIAL	n/a	n/a	n/a	-999	0	15	[0, 0, 0]	n/a	0	0	0	n/a	n/a	0.0	0	0	0	FR3	0	R1217T
1794.811	10.0	1806734	COUNTDOWN_START	n/a	n/a	n/a	-999	0	15	[0, 0, 0]	n/a	0	0	0	n/a	n/a	0.0	0	0	0	FR3	0	R1217T
1805.239	0.008	1817161	COUNTDOWN_END	n/a	n/a	n/a	-999	0	15	[0, 0, 0]	n/a	0	0	0	n/a	n/a	0.0	0	0	0	FR3	0	R1217T
1805.247	1.6	1817169	ORIENT	n/a	n/a	n/a	-999	0	15	[0, 0, 0]	n/a	0	0	0	n/a	n/a	0.0	0	0	0	FR3	0	R1217T
1806.864	2.182	1818786	ORIENT_OFF	n/a	n/a	n/a	-999	0	15	[0, 0, 0]	n/a	0	0	0	n/a	n/a	0.0	0	0	0	FR3	0	R1217T
1809.046	1.6	1820968	WORD	n/a	wordpools/wordpool.txt	POOL	1	1	15	[0, 0, 0]	n/a	0	0	0	n/a	n/a	0.0	0	0	0	FR3	0	R1217T
1810.647	1.001	1822569	WORD_OFF	n/a	n/a	POOL	1	0	15	[0, 0, 0]	n/a	0	0	0	n/a	n/a	0.0	0	0	0	FR3	0	R1217T
1811.648	1.6	1823570	WORD	n/a	wordpools/wordpool.txt	BED	2	0	15	[0, 0, 0]	n/a	0	0	0	n/a	n/a	0.0	0	0	0	FR3	0	R1217T
1813.265	0.9	1825187	WORD_OFF	n/a	n/a	BED	2	0	15	[0, 0, 0]	n/a	0	0	0	n/a	n/a	0.0	0	0	0	FR3	0	R1217T
1814.165	1.6	1826087	WORD	n/a	wordpools/wordpool.txt	CALF	3	1	15	[0, 0, 0]	n/a	0	0	0	n/a	n/a	0.0	0	0	0	FR3	0	R1217T
1815.782	0.95	1827703	WORD_OFF	n/a	n/a	CALF	3	0	15	[0, 0, 0]	n/a	0	0	0	n/a	n/a	0.0	0	0	0	FR3	0	R1217T
1816.732	1.6	1828653	WORD	n/a	wordpools/wordpool.txt	TREE	4	0	15	[0, 0, 0]	n/a	0	0	0	n/a	n/a	0.0	0	0	0	FR3	0	R1217T
1818.349	0.85	1830270	WORD_OFF	n/a	n/a	TREE	4	0	15	[0, 0, 0]	n/a	0	0	0	n/a	n/a	0.0	0	0	0	FR3	0	R1217T
1819.199	1.6	1831120	WORD	n/a	wordpools/wordpool.txt	HOLE	5	0	15	[0, 0, 0]	n/a	0	0	0	n/a	n/a	0.0	0	0	0	FR3	0	R1217T
1820.816	0.85	1832737	WORD_OFF	n/a	n/a	HOLE	5	0	15	[0, 0, 0]	n/a	0	0	0	n/a	n/a	0.0	0	0	0	FR3	0	R1217T
1821.666	1.6	1833587	WORD	n/a	wordpools/wordpool.txt	WAVE	6	0	15	[0, 0, 0]	n/a	0	0	0	n/a	n/a	0.0	0	0	0	FR3	0	R1217T
1823.283	1.001	1835204	WORD_OFF	n/a	n/a	WAVE	6	0	15	[0, 0, 0]	n/a	0	0	0	n/a	n/a	0.0	0	0	0	FR3	0	R1217T
1824.284	1.6	1836205	WORD	n/a	wordpools/wordpool.txt	YARD	7	0	15	[0, 0, 0]	n/a	0	0	0	n/a	n/a	0.0	0	0	0	FR3	0	R1217T
1825.9	1.0	1837821	WORD_OFF	n/a	n/a	YARD	7	0	15	[0, 0, 0]	n/a	0	0	0	n/a	n/a	0.0	0	0	0	FR3	0	R1217T
1826.9	1.6	1838821	WORD	n/a	wordpools/wordpool.txt	BEAK	8	0	15	[0, 0, 0]	n/a	0	0	0	n/a	n/a	0.0	0	0	0	FR3	0	R1217T
1828.518	0.983	1840439	WORD_OFF	n/a	n/a	BEAK	8	0	15	[0, 0, 0]	n/a	0	0	0	n/a	n/a	0.0	0	0	0	FR3	0	R1217T
1829.501	1.6	1841422	WORD	n/a	wordpools/wordpool.txt	WOLF	9	0	15	[0, 0, 0]	n/a	0	0	0	n/a	n/a	0.0	0	0	0	FR3	0	R1217T
1831.117	0.868	1843038	WORD_OFF	n/a	n/a	WOLF	9	0	15	[0, 0, 0]	n/a	0	0	0	n/a	n/a	0.0	0	0	0	FR3	0	R1217T
1831.985	1.6	1843905	WORD	n/a	wordpools/wordpool.txt	TANK	10	0	15	[0, 0, 0]	n/a	0	0	0	n/a	n/a	0.0	0	0	0	FR3	0	R1217T
1833.602	0.817	1845522	WORD_OFF	n/a	n/a	TANK	10	0	15	[0, 0, 0]	n/a	0	0	0	n/a	n/a	0.0	0	0	0	FR3	0	R1217T
1834.419	1.6	1846339	WORD	n/a	wordpools/wordpool.txt	FENCE	11	0	15	[0, 0, 0]	n/a	0	0	0	n/a	n/a	0.0	0	0	0	FR3	0	R1217T
1836.034	0.802	1847954	WORD_OFF	n/a	n/a	FENCE	11	0	15	[0, 0, 0]	n/a	0	0	0	n/a	n/a	0.0	0	0	0	FR3	0	R1217T
1836.836	1.6	1848756	WORD	n/a	wordpools/wordpool.txt	VASE	12	0	15	[0, 0, 0]	n/a	0	0	0	n/a	n/a	0.0	0	0	0	FR3	0	R1217T
1838.453	0.0	1850373	WORD_OFF	n/a	n/a	VASE	12	0	15	[0, 0, 0]	n/a	0	0	0	n/a	n/a	0.0	0	0	0	FR3	0	R1217T
1838.453	0.0	1850373	DISTRACT_START	n/a	n/a	n/a	-999	0	15	[0, 0, 0]	n/a	0	0	0	n/a	n/a	0.0	0	0	0	FR3	0	R1217T
1838.453	0.016	1850373	START	n/a	n/a	n/a	-999	0	15	[-999, -999, -999]	n/a	0	0	0	n/a	n/a	0.0	0	0	0	FR3	0	R1217T
1838.469	4.801	1850389	PROB	4.765	n/a	n/a	-999	0	15	[6, 4, 6]	16	0	0	0	n/a	n/a	0.0	0	0	0	FR3	0	R1217T
1843.27	2.567	1855190	PROB	2.53	n/a	n/a	-999	0	15	[2, 2, 7]	11	0	0	0	n/a	n/a	0.0	0	0	0	FR3	0	R1217T
1845.837	2.3	1857757	PROB	2.275	n/a	n/a	-999	0	15	[5, 5, 1]	11	0	0	0	n/a	n/a	0.0	0	0	0	FR3	0	R1217T
1848.137	4.668	1860057	PROB	4.639	n/a	n/a	-999	0	15	[8, 4, 4]	16	0	0	0	n/a	n/a	0.0	0	0	0	FR3	0	R1217T
1852.805	6.772	1864724	PROB	6.772	n/a	n/a	-999	0	15	[8, 6, 7]	21	0	0	0	n/a	n/a	0.0	0	0	0	FR3	0	R1217T
1859.577	0.013	1871496	STOP	n/a	n/a	n/a	-999	0	15	[-999, -999, -999]	n/a	0	0	0	n/a	n/a	0.0	0	0	0	FR3	0	R1217T
1859.59	0.566	1871509	DISTRACT_END	n/a	n/a	n/a	-999	0	15	[0, 0, 0]	n/a	0	0	0	n/a	n/a	0.0	0	0	0	FR3	0	R1217T
1860.156	0.5	1872075	RETRIEVAL_ORIENT	n/a	n/a	n/a	-999	0	15	[0, 0, 0]	n/a	0	0	0	n/a	n/a	0.0	0	0	0	FR3	0	R1217T
1860.674	0.534	1872593	REC_START	n/a	n/a	n/a	-999	0	15	[0, 0, 0]	n/a	0	0	0	n/a	n/a	0.0	0	0	0	FR3	0	R1217T
1861.208	0.357	1873127	REC_WORD_VV	0.534	n/a	<>	-999	0	15	[0, 0, 0]	n/a	0	0	0	n/a	n/a	0.0	0	0	0	FR3	0	R1217T
1861.565	0.196	1873484	REC_WORD_VV	0.891	n/a	<>	-999	0	15	[0, 0, 0]	n/a	0	0	0	n/a	n/a	0.0	0	0	0	FR3	0	R1217T
1861.761	1.343	1873680	REC_WORD	1.087	n/a	POOL	1	1	15	[0, 0, 0]	n/a	0	0	0	n/a	n/a	0.0	0	0	0	FR3	0	R1217T
1863.104	27.581	1875023	REC_WORD	2.43	n/a	CALF	3	1	15	[0, 0, 0]	n/a	0	0	0	n/a	n/a	0.0	0	0	0	FR3	0	R1217T
1890.685	5.845	1902602	REC_END	n/a	n/a	n/a	-999	0	15	[0, 0, 0]	n/a	0	0	0	n/a	n/a	0.0	0	0	0	FR3	0	R1217T
1896.53	0.5	1908447	TRIAL	n/a	n/a	n/a	-999	0	16	[0, 0, 0]	n/a	0	1	0	n/a	n/a	0.0	0	0	0	FR3	0	R1217T
1897.03	10.0	1908947	COUNTDOWN_START	n/a	n/a	n/a	-999	0	16	[0, 0, 0]	n/a	0	1	0	n/a	n/a	0.0	0	0	0	FR3	0	R1217T
1907.458	0.007	1919374	COUNTDOWN_END	n/a	n/a	n/a	-999	0	16	[0, 0, 0]	n/a	0	1	0	n/a	n/a	0.0	0	0	0	FR3	0	R1217T
1907.465	1.6	1919381	ORIENT	n/a	n/a	n/a	-999	0	16	[0, 0, 0]	n/a	0	1	0	n/a	n/a	0.0	0	0	0	FR3	0	R1217T
1909.081	2.168	1920997	ORIENT_OFF	n/a	n/a	n/a	-999	0	16	[0, 0, 0]	n/a	0	1	0	n/a	n/a	0.0	0	0	0	FR3	0	R1217T
1911.249	1.6	1923165	WORD	n/a	wordpools/wordpool.txt	FOOD	1	0	16	[0, 0, 0]	n/a	0	1	0	n/a	n/a	0.0	0	0	0	FR3	0	R1217T
1912.866	0.817	1924782	WORD_OFF	n/a	n/a	FOOD	1	0	16	[0, 0, 0]	n/a	0	1	0	n/a	n/a	0.0	0	0	0	FR3	0	R1217T
1913.683	1.6	1925599	WORD	n/a	wordpools/wordpool.txt	SHELL	2	1	16	[0, 0, 0]	n/a	0	1	0	n/a	n/a	0.0	0	0	0	FR3	0	R1217T
1915.3	0.95	1927215	WORD_OFF	n/a	n/a	SHELL	2	0	16	[0, 0, 0]	n/a	0	1	0	n/a	n/a	0.0	0	0	0	FR3	0	R1217T
1916.25	1.6	1928165	WORD	n/a	wordpools/wordpool.txt	CLOCK	3	0	16	[0, 0, 0]	n/a	0	1	0	n/a	n/a	0.0	0	0	0	FR3	0	R1217T
1917.831	0.0	1929746	STIM_ON	n/a	n/a	CLOCK	3	0	16	[0, 0, 0]	n/a	1	1	500	LC9	LC10	750.0	200	100	300	FR3	0	R1217T
1917.867	0.464	1929782	WORD_OFF	n/a	n/a	CLOCK	3	0	16	[0, 0, 0]	n/a	1	1	500	LC9	LC10	750.0	200	100	300	FR3	0	R1217T
1918.331	0.42	1930246	STIM_OFF	n/a	n/a	n/a	3	0	16	[0, 0, 0]	n/a	0	1	500	LC9	LC10	750.0	200	100	300	FR3	0	R1217T
1918.751	1.6	1930666	WORD	n/a	wordpools/wordpool.txt	SMOKE	4	0	16	[0, 0, 0]	n/a	0	1	0	n/a	n/a	0.0	0	0	0	FR3	0	R1217T
1920.332	0.0	1932247	STIM_ON	n/a	n/a	SMOKE	4	0	16	[0, 0, 0]	n/a	1	1	500	LC9	LC10	750.0	200	100	300	FR3	0	R1217T
1920.367	0.465	1932282	WORD_OFF	n/a	n/a	SMOKE	4	0	16	[0, 0, 0]	n/a	1	1	500	LC9	LC10	750.0	200	100	300	FR3	0	R1217T
1920.832	0.502	1932747	STIM_OFF	n/a	n/a	n/a	4	0	16	[0, 0, 0]	n/a	0	1	500	LC9	LC10	750.0	200	100	300	FR3	0	R1217T
1921.334	1.6	1933249	WORD	n/a	wordpools/wordpool.txt	BANK	5	1	16	[0, 0, 0]	n/a	0	1	0	n/a	n/a	0.0	0	0	0	FR3	0	R1217T
1922.917	0.0	1934832	STIM_ON	n/a	n/a	BANK	5	1	16	[0, 0, 0]	n/a	1	1	500	LC9	LC10	750.0	200	100	300	FR3	0	R1217T
1922.951	0.466	1934866	WORD_OFF	n/a	n/a	BANK	5	0	16	[0, 0, 0]	n/a	1	1	500	LC9	LC10	750.0	200	100	300	FR3	0	R1217T
1923.417	0.384	1935332	STIM_OFF	n/a	n/a	n/a	5	0	16	[0, 0, 0]	n/a	0	1	500	LC9	LC10	750.0	200	100	300	FR3	0	R1217T
1923.801	1.6	1935716	WORD	n/a	wordpools/wordpool.txt	BIRD	6	1	16	[0, 0, 0]	n/a	0	1	0	n/a	n/a	0.0	0	0	0	FR3	0	R1217T
1925.382	0.0	1937297	STIM_ON	n/a	n/a	BIRD	6	1	16	[0, 0, 0]	n/a	1	1	500	LC9	LC10	750.0	200	100	300	FR3	0	R1217T
1925.418	0.464	1937333	WORD_OFF	n/a	n/a	BIRD	6	0	16	[0, 0, 0]	n/a	1	1	500	LC9	LC10	750.0	200	100	300	FR3	0	R1217T
1925.882	0.536	1937797	STIM_OFF	n/a	n/a	n/a	6	0	16	[0, 0, 0]	n/a	0	1	500	LC9	LC10	750.0	200	100	300	FR3	0	R1217T
1926.418	1.6	1938333	WORD	n/a	wordpools/wordpool.txt	JAIL	7	0	16	[0, 0, 0]	n/a	0	1	0	n/a	n/a	0.0	0	0	0	FR3	0	R1217T
1928.003	0.0	1939918	STIM_ON	n/a	n/a	JAIL	7	0	16	[0, 0, 0]	n/a	1	1	500	LC9	LC10	750.0	200	100	300	FR3	0	R1217T
1928.035	0.468	1939950	WORD_OFF	n/a	n/a	JAIL	7	0	16	[0, 0, 0]	n/a	1	1	500	LC9	LC10	750.0	200	100	300	FR3	0	R1217T
1928.503	0.449	1940418	STIM_OFF	n/a	n/a	n/a	7	0	16	[0, 0, 0]	n/a	0	1	500	LC9	LC10	750.0	200	100	300	FR3	0	R1217T
1928.952	1.6	1940867	WORD	n/a	wordpools/wordpool.txt	ICE	8	0	16	[0, 0, 0]	n/a	0	1	0	n/a	n/a	0.0	0	0	0	FR3	0	R1217T
1930.569	0.884	1942484	WORD_OFF	n/a	n/a	ICE	8	0	16	[0, 0, 0]	n/a	0	1	0	n/a	n/a	0.0	0	0	0	FR3	0	R1217T
1931.453	1.6	1943368	WORD	n/a	wordpools/wordpool.txt	RIB	9	0	16	[0, 0, 0]	n/a	0	1	0	n/a	n/a	0.0	0	0	0	FR3	0	R1217T
1933.069	0.967	1944983	WORD_OFF	n/a	n/a	RIB	9	0	16	[0, 0, 0]	n/a	0	1	0	n/a	n/a	0.0	0	0	0	FR3	0	R1217T
1934.036	1.6	1945950	WORD	n/a	wordpools/wordpool.txt	FORT	10	0	16	[0, 0, 0]	n/a	0	1	0	n/a	n/a	0.0	0	0	0	FR3	0	R1217T
1935.623	0.0	1947537	STIM_ON	n/a	n/a	FORT	10	0	16	[0, 0, 0]	n/a	1	1	500	LC9	LC10	750.0	200	100	300	FR3	0	R1217T
1935.654	0.47	1947568	WORD_OFF	n/a	n/a	FORT	10	0	16	[0, 0, 0]	n/a	1	1	500	LC9	LC10	750.0	200	100	300	FR3	0	R1217T
1936.124	0.396	1948038	STIM_OFF	n/a	n/a	n/a	10	0	16	[0, 0, 0]	n/a	0	1	500	LC9	LC10	750.0	200	100	300	FR3	0	R1217T
1936.52	1.6	1948434	WORD	n/a	wordpools/wordpool.txt	EGG	11	0	16	[0, 0, 0]	n/a	0	1	0	n/a	n/a	0.0	0	0	0	FR3	0	R1217T
1938.104	0.0	1950018	STIM_ON	n/a	n/a	EGG	11	0	16	[0, 0, 0]	n/a	1	1	500	LC9	LC10	750.0	200	100	300	FR3	0	R1217T
1938.136	0.468	1950050	WORD_OFF	n/a	n/a	EGG	11	0	16	[0, 0, 0]	n/a	1	1	500	LC9	LC10	750.0	200	100	300	FR3	0	R1217T
1938.604	0.466	1950518	STIM_OFF	n/a	n/a	n/a	11	0	16	[0, 0, 0]	n/a	0	1	500	LC9	LC10	750.0	200	100	300	FR3	0	R1217T
1939.07	1.6	1950984	WORD	n/a	wordpools/wordpool.txt	GOLD	12	0	16	[0, 0, 0]	n/a	0	1	0	n/a	n/a	0.0	0	0	0	FR3	0	R1217T
1940.688	0.0	1952602	WORD_OFF	n/a	n/a	GOLD	12	0	16	[0, 0, 0]	n/a	0	1	0	n/a	n/a	0.0	0	0	0	FR3	0	R1217T
1940.688	0.0	1952602	DISTRACT_START	n/a	n/a	n/a	-999	0	16	[0, 0, 0]	n/a	0	1	0	n/a	n/a	0.0	0	0	0	FR3	0	R1217T
1940.688	0.016	1952602	START	n/a	n/a	n/a	-999	0	16	[-999, -999, -999]	n/a	0	1	0	n/a	n/a	0.0	0	0	0	FR3	0	R1217T
1940.704	4.135	1952618	PROB	4.106	n/a	n/a	-999	0	16	[6, 7, 6]	19	0	1	0	n/a	n/a	0.0	0	0	0	FR3	0	R1217T
1944.839	3.984	1956753	PROB	3.955	n/a	n/a	-999	0	16	[6, 7, 9]	22	0	1	0	n/a	n/a	0.0	0	0	0	FR3	0	R1217T
1948.823	4.0	1960736	PROB	3.977	n/a	n/a	-999	0	16	[6, 3, 5]	14	0	1	0	n/a	n/a	0.0	0	0	0	FR3	0	R1217T
1952.823	7.018	1964736	PROB	6.995	n/a	n/a	-999	0	16	[7, 9, 6]	22	0	1	0	n/a	n/a	0.0	0	0	0	FR3	0	R1217T
1959.841	6.799	1971754	PROB	6.799	n/a	n/a	-999	0	16	[6, 9, 1]	16	0	1	0	n/a	n/a	0.0	0	0	0	FR3	0	R1217T
1966.64	0.019	1978552	STOP	n/a	n/a	n/a	-999	0	16	[-999, -999, -999]	n/a	0	1	0	n/a	n/a	0.0	0	0	0	FR3	0	R1217T
1966.659	0.55	1978571	DISTRACT_END	n/a	n/a	n/a	-999	0	16	[0, 0, 0]	n/a	0	1	0	n/a	n/a	0.0	0	0	0	FR3	0	R1217T
1967.209	0.5	1979121	RETRIEVAL_ORIENT	n/a	n/a	n/a	-999	0	16	[0, 0, 0]	n/a	0	1	0	n/a	n/a	0.0	0	0	0	FR3	0	R1217T
1967.727	0.748	1979639	REC_START	n/a	n/a	n/a	-999	0	16	[0, 0, 0]	n/a	0	1	0	n/a	n/a	0.0	0	0	0	FR3	0	R1217T
1968.475	0.835	1980387	REC_WORD	0.748	n/a	BIRD	6	1	16	[0, 0, 0]	n/a	0	1	0	n/a	n/a	0.0	0	0	0	FR3	0	R1217T
1969.31	1.187	1981222	REC_WORD	1.583	n/a	BANK	5	1	16	[0, 0, 0]	n/a	0	1	0	n/a	n/a	0.0	0	0	0	FR3	0	R1217T
1970.497	3.067	1982409	REC_WORD	2.77	n/a	SHELL	2	1	16	[0, 0, 0]	n/a	0	1	0	n/a	n/a	0.0	0	0	0	FR3	0	R1217T
1973.564	24.173	1985476	REC_WORD	5.837	n/a	LEAF	-999	0	16	[0, 0, 0]	n/a	0	1	0	n/a	n/a	0.0	0	0	0	FR3	0	R1217T
1997.737	6.062	2009648	REC_END	n/a	n/a	n/a	-999	0	16	[0, 0, 0]	n/a	0	1	0	n/a	n/a	0.0	0	0	0	FR3	0	R1217T
2003.799	0.5	2015709	TRIAL	n/a	n/a	n/a	-999	0	17	[0, 0, 0]	n/a	0	0	0	n/a	n/a	0.0	0	0	0	FR3	0	R1217T
2004.299	10.0	2016209	COUNTDOWN_START	n/a	n/a	n/a	-999	0	17	[0, 0, 0]	n/a	0	0	0	n/a	n/a	0.0	0	0	0	FR3	0	R1217T
2014.727	0.008	2026637	COUNTDOWN_END	n/a	n/a	n/a	-999	0	17	[0, 0, 0]	n/a	0	0	0	n/a	n/a	0.0	0	0	0	FR3	0	R1217T
2014.735	1.6	2026645	ORIENT	n/a	n/a	n/a	-999	0	17	[0, 0, 0]	n/a	0	0	0	n/a	n/a	0.0	0	0	0	FR3	0	R1217T
2016.352	2.0	2028261	ORIENT_OFF	n/a	n/a	n/a	-999	0	17	[0, 0, 0]	n/a	0	0	0	n/a	n/a	0.0	0	0	0	FR3	0	R1217T
2018.352	1.6	2030261	WORD	n/a	wordpools/wordpool.txt	ARK	1	1	17	[0, 0, 0]	n/a	0	0	0	n/a	n/a	0.0	0	0	0	FR3	0	R1217T
2019.969	0.783	2031878	WORD_OFF	n/a	n/a	ARK	1	0	17	[0, 0, 0]	n/a	0	0	0	n/a	n/a	0.0	0	0	0	FR3	0	R1217T
2020.752	1.6	2032661	WORD	n/a	wordpools/wordpool.txt	BREAD	2	1	17	[0, 0, 0]	n/a	0	0	0	n/a	n/a	0.0	0	0	0	FR3	0	R1217T
2022.369	0.867	2034278	WORD_OFF	n/a	n/a	BREAD	2	0	17	[0, 0, 0]	n/a	0	0	0	n/a	n/a	0.0	0	0	0	FR3	0	R1217T
2023.236	1.6	2035145	WORD	n/a	wordpools/wordpool.txt	NOSE	3	0	17	[0, 0, 0]	n/a	0	0	0	n/a	n/a	0.0	0	0	0	FR3	0	R1217T
2024.853	0.934	2036762	WORD_OFF	n/a	n/a	NOSE	3	0	17	[0, 0, 0]	n/a	0	0	0	n/a	n/a	0.0	0	0	0	FR3	0	R1217T
2025.787	1.6	2037696	WORD	n/a	wordpools/wordpool.txt	ROPE	4	0	17	[0, 0, 0]	n/a	0	0	0	n/a	n/a	0.0	0	0	0	FR3	0	R1217T
2027.404	0.766	2039313	WORD_OFF	n/a	n/a	ROPE	4	0	17	[0, 0, 0]	n/a	0	0	0	n/a	n/a	0.0	0	0	0	FR3	0	R1217T
2028.17	1.6	2040079	WORD	n/a	wordpools/wordpool.txt	SEED	5	0	17	[0, 0, 0]	n/a	0	0	0	n/a	n/a	0.0	0	0	0	FR3	0	R1217T
2029.787	0.867	2041696	WORD_OFF	n/a	n/a	SEED	5	0	17	[0, 0, 0]	n/a	0	0	0	n/a	n/a	0.0	0	0	0	FR3	0	R1217T
2030.654	1.6	2042563	WORD	n/a	wordpools/wordpool.txt	PIT	6	0	17	[0, 0, 0]	n/a	0	0	0	n/a	n/a	0.0	0	0	0	FR3	0	R1217T
2032.271	0.967	2044179	WORD_OFF	n/a	n/a	PIT	6	0	17	[0, 0, 0]	n/a	0	0	0	n/a	n/a	0.0	0	0	0	FR3	0	R1217T
2033.238	1.6	2045146	WORD	n/a	wordpools/wordpool.txt	FACE	7	0	17	[0, 0, 0]	n/a	0	0	0	n/a	n/a	0.0	0	0	0	FR3	0	R1217T
2034.855	0.817	2046763	WORD_OFF	n/a	n/a	FACE	7	0	17	[0, 0, 0]	n/a	0	0	0	n/a	n/a	0.0	0	0	0	FR3	0	R1217T
2035.672	1.6	2047580	WORD	n/a	wordpools/wordpool.txt	SPARK	8	0	17	[0, 0, 0]	n/a	0	0	0	n/a	n/a	0.0	0	0	0	FR3	0	R1217T
2037.289	0.782	2049197	WORD_OFF	n/a	n/a	SPARK	8	0	17	[0, 0, 0]	n/a	0	0	0	n/a	n/a	0.0	0	0	0	FR3	0	R1217T
2038.071	1.6	2049979	WORD	n/a	wordpools/wordpool.txt	CHAIR	9	0	17	[0, 0, 0]	n/a	0	0	0	n/a	n/a	0.0	0	0	0	FR3	0	R1217T
2039.689	0.8	2051597	WORD_OFF	n/a	n/a	CHAIR	9	0	17	[0, 0, 0]	n/a	0	0	0	n/a	n/a	0.0	0	0	0	FR3	0	R1217T
2040.489	1.6	2052397	WORD	n/a	wordpools/wordpool.txt	SKUNK	10	0	17	[0, 0, 0]	n/a	0	0	0	n/a	n/a	0.0	0	0	0	FR3	0	R1217T
2042.105	0.917	2054013	WORD_OFF	n/a	n/a	SKUNK	10	0	17	[0, 0, 0]	n/a	0	0	0	n/a	n/a	0.0	0	0	0	FR3	0	R1217T
2043.022	1.6	2054930	WORD	n/a	wordpools/wordpool.txt	SHIRT	11	0	17	[0, 0, 0]	n/a	0	0	0	n/a	n/a	0.0	0	0	0	FR3	0	R1217T
2044.64	0.85	2056548	WORD_OFF	n/a	n/a	SHIRT	11	0	17	[0, 0, 0]	n/a	0	0	0	n/a	n/a	0.0	0	0	0	FR3	0	R1217T
2045.49	1.6	2057398	WORD	n/a	wordpools/wordpool.txt	SINK	12	0	17	[0, 0, 0]	n/a	0	0	0	n/a	n/a	0.0	0	0	0	FR3	0	R1217T
2047.106	0.0	2059014	DISTRACT_START	n/a	n/a	n/a	-999	0	17	[0, 0, 0]	n/a	0	0	0	n/a	n/a	0.0	0	0	0	FR3	0	R1217T
2047.106	0.001	2059014	WORD_OFF	n/a	n/a	SINK	12	0	17	[0, 0, 0]	n/a	0	0	0	n/a	n/a	0.0	0	0	0	FR3	0	R1217T
2047.107	0.016	2059015	START	n/a	n/a	n/a	-999	0	17	[-999, -999, -999]	n/a	0	0	0	n/a	n/a	0.0	0	0	0	FR3	0	R1217T
2047.123	4.085	2059031	PROB	4.061	n/a	n/a	-999	0	17	[8, 9, 8]	25	0	0	0	n/a	n/a	0.0	0	0	0	FR3	0	R1217T
2051.208	3.651	2063115	PROB	3.624	n/a	n/a	-999	0	17	[9, 2, 1]	12	0	0	0	n/a	n/a	0.0	0	0	0	FR3	0	R1217T
2054.859	3.017	2066766	PROB	2.983	n/a	n/a	-999	0	17	[3, 3, 3]	9	0	0	0	n/a	n/a	0.0	0	0	0	FR3	0	R1217T
2057.876	4.266	2069783	PROB	4.244	n/a	n/a	-999	0	17	[9, 7, 3]	19	0	0	0	n/a	n/a	0.0	0	0	0	FR3	0	R1217T
2062.142	3.485	2074049	PROB	3.458	n/a	n/a	-999	0	17	[5, 9, 2]	16	0	0	0	n/a	n/a	0.0	0	0	0	FR3	0	R1217T
2065.627	3.605	2077533	PROB	3.605	n/a	n/a	-999	0	17	[3, 1, 7]	11	0	0	0	n/a	n/a	0.0	0	0	0	FR3	0	R1217T
2069.232	0.013	2081138	STOP	n/a	n/a	n/a	-999	0	17	[-999, -999, -999]	n/a	0	0	0	n/a	n/a	0.0	0	0	0	FR3	0	R1217T
2069.245	0.583	2081151	DISTRACT_END	n/a	n/a	n/a	-999	0	17	[0, 0, 0]	n/a	0	0	0	n/a	n/a	0.0	0	0	0	FR3	0	R1217T
2069.828	0.5	2081734	RETRIEVAL_ORIENT	n/a	n/a	n/a	-999	0	17	[0, 0, 0]	n/a	0	0	0	n/a	n/a	0.0	0	0	0	FR3	0	R1217T
2070.345	1.276	2082251	REC_START	n/a	n/a	n/a	-999	0	17	[0, 0, 0]	n/a	0	0	0	n/a	n/a	0.0	0	0	0	FR3	0	R1217T
2071.621	0.791	2083527	REC_WORD	1.276	n/a	ARK	1	1	17	[0, 0, 0]	n/a	0	0	0	n/a	n/a	0.0	0	0	0	FR3	0	R1217T
2072.412	8.528	2084318	REC_WORD	2.067	n/a	BREAD	2	1	17	[0, 0, 0]	n/a	0	0	0	n/a	n/a	0.0	0	0	0	FR3	0	R1217T
2080.94	19.418	2092846	REC_WORD	10.595	n/a	SAIL	-999	0	17	[0, 0, 0]	n/a	0	0	0	n/a	n/a	0.0	0	0	0	FR3	0	R1217T
2100.358	5.893	2112262	REC_END	n/a	n/a	n/a	-999	0	17	[0, 0, 0]	n/a	0	0	0	n/a	n/a	0.0	0	0	0	FR3	0	R1217T
2106.251	0.5	2118155	TRIAL	n/a	n/a	n/a	-999	0	18	[0, 0, 0]	n/a	0	0	0	n/a	n/a	0.0	0	0	0	FR3	0	R1217T
2106.751	10.0	2118655	COUNTDOWN_START	n/a	n/a	n/a	-999	0	18	[0, 0, 0]	n/a	0	0	0	n/a	n/a	0.0	0	0	0	FR3	0	R1217T
2117.179	0.008	2129082	COUNTDOWN_END	n/a	n/a	n/a	-999	0	18	[0, 0, 0]	n/a	0	0	0	n/a	n/a	0.0	0	0	0	FR3	0	R1217T
2117.187	1.6	2129090	ORIENT	n/a	n/a	n/a	-999	0	18	[0, 0, 0]	n/a	0	0	0	n/a	n/a	0.0	0	0	0	FR3	0	R1217T
2118.803	2.134	2130706	ORIENT_OFF	n/a	n/a	n/a	-999	0	18	[0, 0, 0]	n/a	0	0	0	n/a	n/a	0.0	0	0	0	FR3	0	R1217T
2120.937	1.6	2132840	WORD	n/a	wordpools/wordpool.txt	ROOF	1	0	18	[0, 0, 0]	n/a	0	0	0	n/a	n/a	0.0	0	0	0	FR3	0	R1217T
2122.554	0.917	2134457	WORD_OFF	n/a	n/a	ROOF	1	0	18	[0, 0, 0]	n/a	0	0	0	n/a	n/a	0.0	0	0	0	FR3	0	R1217T
2123.471	1.6	2135374	WORD	n/a	wordpools/wordpool.txt	FROG	2	0	18	[0, 0, 0]	n/a	0	0	0	n/a	n/a	0.0	0	0	0	FR3	0	R1217T
2125.087	0.868	2136990	WORD_OFF	n/a	n/a	FROG	2	0	18	[0, 0, 0]	n/a	0	0	0	n/a	n/a	0.0	0	0	0	FR3	0	R1217T
2125.955	1.6	2137858	WORD	n/a	wordpools/wordpool.txt	LAMB	3	1	18	[0, 0, 0]	n/a	0	0	0	n/a	n/a	0.0	0	0	0	FR3	0	R1217T
2127.572	0.767	2139475	WORD_OFF	n/a	n/a	LAMB	3	0	18	[0, 0, 0]	n/a	0	0	0	n/a	n/a	0.0	0	0	0	FR3	0	R1217T
2128.339	1.6	2140242	WORD	n/a	wordpools/wordpool.txt	COUCH	4	0	18	[0, 0, 0]	n/a	0	0	0	n/a	n/a	0.0	0	0	0	FR3	0	R1217T
2129.956	0.883	2141859	WORD_OFF	n/a	n/a	COUCH	4	0	18	[0, 0, 0]	n/a	0	0	0	n/a	n/a	0.0	0	0	0	FR3	0	R1217T
2130.839	1.6	2142742	WORD	n/a	wordpools/wordpool.txt	BROOM	5	0	18	[0, 0, 0]	n/a	0	0	0	n/a	n/a	0.0	0	0	0	FR3	0	R1217T
2132.456	0.784	2144358	WORD_OFF	n/a	n/a	BROOM	5	0	18	[0, 0, 0]	n/a	0	0	0	n/a	n/a	0.0	0	0	0	FR3	0	R1217T
2133.24	1.6	2145142	WORD	n/a	wordpools/wordpool.txt	FLOOR	6	0	18	[0, 0, 0]	n/a	0	0	0	n/a	n/a	0.0	0	0	0	FR3	0	R1217T
2134.856	0.984	2146758	WORD_OFF	n/a	n/a	FLOOR	6	0	18	[0, 0, 0]	n/a	0	0	0	n/a	n/a	0.0	0	0	0	FR3	0	R1217T
2135.84	1.6	2147742	WORD	n/a	wordpools/wordpool.txt	LAMP	7	0	18	[0, 0, 0]	n/a	0	0	0	n/a	n/a	0.0	0	0	0	FR3	0	R1217T
2137.457	0.867	2149359	WORD_OFF	n/a	n/a	LAMP	7	0	18	[0, 0, 0]	n/a	0	0	0	n/a	n/a	0.0	0	0	0	FR3	0	R1217T
2138.324	1.6	2150226	WORD	n/a	wordpools/wordpool.txt	MAT	8	1	18	[0, 0, 0]	n/a	0	0	0	n/a	n/a	0.0	0	0	0	FR3	0	R1217T
2139.941	0.95	2151843	WORD_OFF	n/a	n/a	MAT	8	0	18	[0, 0, 0]	n/a	0	0	0	n/a	n/a	0.0	0	0	0	FR3	0	R1217T
2140.891	1.6	2152793	WORD	n/a	wordpools/wordpool.txt	NAIL	9	1	18	[0, 0, 0]	n/a	0	0	0	n/a	n/a	0.0	0	0	0	FR3	0	R1217T
2142.508	0.917	2154410	WORD_OFF	n/a	n/a	NAIL	9	0	18	[0, 0, 0]	n/a	0	0	0	n/a	n/a	0.0	0	0	0	FR3	0	R1217T
2143.425	1.6	2155327	WORD	n/a	wordpools/wordpool.txt	DRUM	10	0	18	[0, 0, 0]	n/a	0	0	0	n/a	n/a	0.0	0	0	0	FR3	0	R1217T
2145.041	1.0	2156943	WORD_OFF	n/a	n/a	DRUM	10	0	18	[0, 0, 0]	n/a	0	0	0	n/a	n/a	0.0	0	0	0	FR3	0	R1217T
2146.041	1.6	2157943	WORD	n/a	wordpools/wordpool.txt	MUD	11	1	18	[0, 0, 0]	n/a	0	0	0	n/a	n/a	0.0	0	0	0	FR3	0	R1217T
2147.659	0.833	2159561	WORD_OFF	n/a	n/a	MUD	11	0	18	[0, 0, 0]	n/a	0	0	0	n/a	n/a	0.0	0	0	0	FR3	0	R1217T
2148.492	1.6	2160393	WORD	n/a	wordpools/wordpool.txt	STORM	12	0	18	[0, 0, 0]	n/a	0	0	0	n/a	n/a	0.0	0	0	0	FR3	0	R1217T
2150.108	0.0	2162009	WORD_OFF	n/a	n/a	STORM	12	0	18	[0, 0, 0]	n/a	0	0	0	n/a	n/a	0.0	0	0	0	FR3	0	R1217T
2150.108	0.001	2162009	DISTRACT_START	n/a	n/a	n/a	-999	0	18	[0, 0, 0]	n/a	0	0	0	n/a	n/a	0.0	0	0	0	FR3	0	R1217T
2150.109	0.016	2162010	START	n/a	n/a	n/a	-999	0	18	[-999, -999, -999]	n/a	0	0	0	n/a	n/a	0.0	0	0	0	FR3	0	R1217T
2150.125	4.035	2162026	PROB	4.011	n/a	n/a	-999	0	18	[4, 6, 1]	11	0	0	0	n/a	n/a	0.0	0	0	0	FR3	0	R1217T
2154.16	4.451	2166061	PROB	4.425	n/a	n/a	-999	0	18	[6, 7, 1]	14	0	0	0	n/a	n/a	0.0	0	0	0	FR3	0	R1217T
2158.611	3.717	2170512	PROB	3.687	n/a	n/a	-999	0	18	[9, 4, 2]	15	0	0	0	n/a	n/a	0.0	0	0	0	FR3	0	R1217T
2162.328	3.417	2174229	PROB	3.385	n/a	n/a	-999	0	18	[1, 4, 5]	10	0	0	0	n/a	n/a	0.0	0	0	0	FR3	0	R1217T
2165.745	3.584	2177645	PROB	3.559	n/a	n/a	-999	0	18	[7, 3, 2]	12	0	0	0	n/a	n/a	0.0	0	0	0	FR3	0	R1217T
2169.329	2.639	2181229	PROB	2.639	n/a	n/a	-999	0	18	[6, 3, 3]	12	0	0	0	n/a	n/a	0.0	0	0	0	FR3	0	R1217T
2171.968	0.012	2183868	STOP	n/a	n/a	n/a	-999	0	18	[-999, -999, -999]	n/a	0	0	0	n/a	n/a	0.0	0	0	0	FR3	0	R1217T
2171.98	0.683	2183880	DISTRACT_END	n/a	n/a	n/a	-999	0	18	[0, 0, 0]	n/a	0	0	0	n/a	n/a	0.0	0	0	0	FR3	0	R1217T
2172.663	0.5	2184563	RETRIEVAL_ORIENT	n/a	n/a	n/a	-999	0	18	[0, 0, 0]	n/a	0	0	0	n/a	n/a	0.0	0	0	0	FR3	0	R1217T
2173.181	0.845	2185081	REC_START	n/a	n/a	n/a	-999	0	18	[0, 0, 0]	n/a	0	0	0	n/a	n/a	0.0	0	0	0	FR3	0	R1217T
2174.026	1.689	2185926	REC_WORD	0.845	n/a	LAMB	3	1	18	[0, 0, 0]	n/a	0	0	0	n/a	n/a	0.0	0	0	0	FR3	0	R1217T
2175.715	1.702	2187615	REC_WORD	2.534	n/a	MAT	8	1	18	[0, 0, 0]	n/a	0	0	0	n/a	n/a	0.0	0	0	0	FR3	0	R1217T
2177.417	1.968	2189317	REC_WORD	4.236	n/a	MUD	11	1	18	[0, 0, 0]	n/a	0	0	0	n/a	n/a	0.0	0	0	0	FR3	0	R1217T
2179.385	3.152	2191285	REC_WORD	6.204	n/a	NAIL	9	1	18	[0, 0, 0]	n/a	0	0	0	n/a	n/a	0.0	0	0	0	FR3	0	R1217T
2182.537	20.657	2194436	REC_WORD	9.356	n/a	NOSE	-999	0	18	[0, 0, 0]	n/a	0	0	0	n/a	n/a	0.0	0	0	0	FR3	0	R1217T
