onset	duration	sample	trial_type	response_time	stim_file	item_name	serialpos	recalled	list	test	answer	stimulation	stim_list	stim_duration	anode_label	cathode_label	amplitude	pulse_freq	n_pulses	pulse_width	experiment	session	subject
0.0	0.0	-1	STIM_ON	n/a	n/a	n/a	-999	0	-999	[0, 0, 0]	n/a	1	0	500	LC8	LC9	500.0	10	5	300	FR3	1	R1163T
0.4	795.912	-1	STIM_OFF	n/a	n/a	n/a	-999	0	-999	[0, 0, 0]	n/a	0	0	500	LC8	LC9	500.0	10	5	300	FR3	1	R1163T
796.312	0.0	-1	STIM_ON	n/a	n/a	n/a	-999	0	-999	[0, 0, 0]	n/a	1	0	500	LC8	LC9	250.0	10	5	300	FR3	1	R1163T
796.712	9.368	-1	STIM_OFF	n/a	n/a	n/a	-999	0	-999	[0, 0, 0]	n/a	0	0	500	LC8	LC9	250.0	10	5	300	FR3	1	R1163T
806.08	0.0	-1	STIM_ON	n/a	n/a	n/a	-999	0	-999	[0, 0, 0]	n/a	1	0	500	LC8	LC9	250.0	10	5	300	FR3	1	R1163T
806.48	6.498	-1	STIM_OFF	n/a	n/a	n/a	-999	0	-999	[0, 0, 0]	n/a	0	0	500	LC8	LC9	250.0	10	5	300	FR3	1	R1163T
812.978	0.0	-1	STIM_ON	n/a	n/a	n/a	-999	0	-999	[0, 0, 0]	n/a	1	0	500	LC8	LC9	250.0	10	5	300	FR3	1	R1163T
813.378	10.471	-1	STIM_OFF	n/a	n/a	n/a	-999	0	-999	[0, 0, 0]	n/a	0	0	500	LC8	LC9	250.0	10	5	300	FR3	1	R1163T
823.849	0.0	-1	STIM_ON	n/a	n/a	n/a	-999	0	-999	[0, 0, 0]	n/a	1	0	500	LC8	LC9	500.0	10	5	300	FR3	1	R1163T
824.249	7.72	-1	STIM_OFF	n/a	n/a	n/a	-999	0	-999	[0, 0, 0]	n/a	0	0	500	LC8	LC9	500.0	10	5	300	FR3	1	R1163T
831.969	0.0	-1	STIM_ON	n/a	n/a	n/a	-999	0	-999	[0, 0, 0]	n/a	1	0	500	LC8	LC9	500.0	10	5	300	FR3	1	R1163T
832.369	11.573	-1	STIM_OFF	n/a	n/a	n/a	-999	0	-999	[0, 0, 0]	n/a	0	0	500	LC8	LC9	500.0	10	5	300	FR3	1	R1163T
843.942	0.0	-1	STIM_ON	n/a	n/a	n/a	-999	0	-999	[0, 0, 0]	n/a	1	0	500	LC8	LC9	500.0	10	5	300	FR3	1	R1163T
844.342	31.41	-1	STIM_OFF	n/a	n/a	n/a	-999	0	-999	[0, 0, 0]	n/a	0	0	500	LC8	LC9	500.0	10	5	300	FR3	1	R1163T
875.752	0.0	22045	INSTRUCT_END	n/a	n/a	n/a	-999	0	-999	[0, 0, 0]	n/a	0	0	0	n/a	n/a	0.0	0	0	0	FR3	1	R1163T
875.752	10.975	22045	INSTRUCT_START	n/a	n/a	n/a	-999	0	-999	[0, 0, 0]	n/a	0	0	0	n/a	n/a	0.0	0	0	0	FR3	1	R1163T
886.727	0.0	33020	SESS_START	n/a	n/a	n/a	-999	0	-999	[0, 0, 0]	n/a	0	0	0	n/a	n/a	0.0	0	0	0	FR3	1	R1163T
886.727	12.001	33020	MIC_TEST	n/a	n/a	n/a	-999	0	-999	[0, 0, 0]	n/a	0	0	0	n/a	n/a	0.0	0	0	0	FR3	1	R1163T
898.728	0.896	45020	PRACTICE_TRIAL	n/a	n/a	n/a	-999	0	-1	[0, 0, 0]	n/a	0	0	0	n/a	n/a	0.0	0	0	0	FR3	1	R1163T
899.624	10.0	45916	COUNTDOWN_START	n/a	n/a	n/a	-999	0	-1	[0, 0, 0]	n/a	0	0	0	n/a	n/a	0.0	0	0	0	FR3	1	R1163T
910.052	0.007	56343	COUNTDOWN_END	n/a	n/a	n/a	-999	0	-1	[0, 0, 0]	n/a	0	0	0	n/a	n/a	0.0	0	0	0	FR3	1	R1163T
910.059	1.6	56350	PRACTICE_ORIENT	n/a	n/a	n/a	-999	0	-1	[0, 0, 0]	n/a	0	0	0	n/a	n/a	0.0	0	0	0	FR3	1	R1163T
911.675	2.201	57966	PRACTICE_ORIENT_OFF	n/a	n/a	n/a	-999	0	-1	[0, 0, 0]	n/a	0	0	0	n/a	n/a	0.0	0	0	0	FR3	1	R1163T
913.876	1.6	60167	PRACTICE_WORD	n/a	n/a	ATTIC	1	0	-1	[0, 0, 0]	n/a	0	0	0	n/a	n/a	0.0	0	0	0	FR3	1	R1163T
915.492	0.884	61783	PRACTICE_WORD_OFF	n/a	n/a	ATTIC	-999	0	-1	[0, 0, 0]	n/a	0	0	0	n/a	n/a	0.0	0	0	0	FR3	1	R1163T
916.376	1.6	62667	PRACTICE_WORD	n/a	n/a	RING	2	0	-1	[0, 0, 0]	n/a	0	0	0	n/a	n/a	0.0	0	0	0	FR3	1	R1163T
917.994	1.0	64285	PRACTICE_WORD_OFF	n/a	n/a	RING	-999	0	-1	[0, 0, 0]	n/a	0	0	0	n/a	n/a	0.0	0	0	0	FR3	1	R1163T
918.994	1.6	65285	PRACTICE_WORD	n/a	n/a	FLOOD	3	0	-1	[0, 0, 0]	n/a	0	0	0	n/a	n/a	0.0	0	0	0	FR3	1	R1163T
920.61	0.817	66901	PRACTICE_WORD_OFF	n/a	n/a	FLOOD	-999	0	-1	[0, 0, 0]	n/a	0	0	0	n/a	n/a	0.0	0	0	0	FR3	1	R1163T
921.427	1.6	67718	PRACTICE_WORD	n/a	n/a	CAMEL	4	0	-1	[0, 0, 0]	n/a	0	0	0	n/a	n/a	0.0	0	0	0	FR3	1	R1163T
923.045	0.849	69336	PRACTICE_WORD_OFF	n/a	n/a	CAMEL	-999	0	-1	[0, 0, 0]	n/a	0	0	0	n/a	n/a	0.0	0	0	0	FR3	1	R1163T
923.894	1.6	70185	PRACTICE_WORD	n/a	n/a	BEAM	5	0	-1	[0, 0, 0]	n/a	0	0	0	n/a	n/a	0.0	0	0	0	FR3	1	R1163T
925.511	0.801	71801	PRACTICE_WORD_OFF	n/a	n/a	BEAM	-999	0	-1	[0, 0, 0]	n/a	0	0	0	n/a	n/a	0.0	0	0	0	FR3	1	R1163T
926.312	1.6	72602	PRACTICE_WORD	n/a	n/a	COTTON	6	0	-1	[0, 0, 0]	n/a	0	0	0	n/a	n/a	0.0	0	0	0	FR3	1	R1163T
927.928	0.984	74218	PRACTICE_WORD_OFF	n/a	n/a	COTTON	-999	0	-1	[0, 0, 0]	n/a	0	0	0	n/a	n/a	0.0	0	0	0	FR3	1	R1163T
928.912	1.6	75202	PRACTICE_WORD	n/a	n/a	CHEST	7	0	-1	[0, 0, 0]	n/a	0	0	0	n/a	n/a	0.0	0	0	0	FR3	1	R1163T
930.529	0.833	76819	PRACTICE_WORD_OFF	n/a	n/a	CHEST	-999	0	-1	[0, 0, 0]	n/a	0	0	0	n/a	n/a	0.0	0	0	0	FR3	1	R1163T
931.362	1.6	77652	PRACTICE_WORD	n/a	n/a	IRON	8	0	-1	[0, 0, 0]	n/a	0	0	0	n/a	n/a	0.0	0	0	0	FR3	1	R1163T
932.963	0.984	79253	PRACTICE_WORD_OFF	n/a	n/a	IRON	-999	0	-1	[0, 0, 0]	n/a	0	0	0	n/a	n/a	0.0	0	0	0	FR3	1	R1163T
933.947	1.6	80237	PRACTICE_WORD	n/a	n/a	WAGON	9	0	-1	[0, 0, 0]	n/a	0	0	0	n/a	n/a	0.0	0	0	0	FR3	1	R1163T
935.563	0.933	81853	PRACTICE_WORD_OFF	n/a	n/a	WAGON	-999	0	-1	[0, 0, 0]	n/a	0	0	0	n/a	n/a	0.0	0	0	0	FR3	1	R1163T
936.496	1.6	82786	PRACTICE_WORD	n/a	n/a	TONGUE	10	0	-1	[0, 0, 0]	n/a	0	0	0	n/a	n/a	0.0	0	0	0	FR3	1	R1163T
938.097	0.901	84387	PRACTICE_WORD_OFF	n/a	n/a	TONGUE	-999	0	-1	[0, 0, 0]	n/a	0	0	0	n/a	n/a	0.0	0	0	0	FR3	1	R1163T
938.998	1.6	85288	PRACTICE_WORD	n/a	n/a	RHINO	11	0	-1	[0, 0, 0]	n/a	0	0	0	n/a	n/a	0.0	0	0	0	FR3	1	R1163T
940.614	0.933	86904	PRACTICE_WORD_OFF	n/a	n/a	RHINO	-999	0	-1	[0, 0, 0]	n/a	0	0	0	n/a	n/a	0.0	0	0	0	FR3	1	R1163T
941.547	1.6	87837	PRACTICE_WORD	n/a	n/a	WATCH	12	0	-1	[0, 0, 0]	n/a	0	0	0	n/a	n/a	0.0	0	0	0	FR3	1	R1163T
943.148	0.0	89437	PRACTICE_WORD_OFF	n/a	n/a	WATCH	-999	0	-1	[0, 0, 0]	n/a	0	0	0	n/a	n/a	0.0	0	0	0	FR3	1	R1163T
943.148	0.001	89437	DISTRACT_START	n/a	n/a	n/a	-999	0	-1	[0, 0, 0]	n/a	0	0	0	n/a	n/a	0.0	0	0	0	FR3	1	R1163T
943.149	0.016	89438	START	n/a	n/a	n/a	-999	0	-1	[-999, -999, -999]	n/a	0	0	0	n/a	n/a	0.0	0	0	0	FR3	1	R1163T
943.165	7.068	89454	PROB	7.035	n/a	n/a	-999	0	-1	[4, 7, 3]	14	0	0	0	n/a	n/a	0.0	0	0	0	FR3	1	R1163T
950.233	8.117	96522	PROB	8.088	n/a	n/a	-999	0	-1	[3, 1, 3]	7	0	0	0	n/a	n/a	0.0	0	0	0	FR3	1	R1163T
958.35	11.449	104639	PROB	11.449	n/a	n/a	-999	0	-1	[8, 7, 8]	18	0	0	0	n/a	n/a	0.0	0	0	0	FR3	1	R1163T
969.799	0.02	116087	STOP	n/a	n/a	n/a	-999	0	-1	[-999, -999, -999]	n/a	0	0	0	n/a	n/a	0.0	0	0	0	FR3	1	R1163T
969.819	0.584	116107	DISTRACT_END	n/a	n/a	n/a	-999	0	-1	[0, 0, 0]	n/a	0	0	0	n/a	n/a	0.0	0	0	0	FR3	1	R1163T
970.403	0.5	116691	RETRIEVAL_ORIENT	n/a	n/a	n/a	-999	0	-1	[0, 0, 0]	n/a	0	0	0	n/a	n/a	0.0	0	0	0	FR3	1	R1163T
970.92	30.01	117208	PRACTICE_REC_START	n/a	n/a	n/a	-999	0	-1	[0, 0, 0]	n/a	0	0	0	n/a	n/a	0.0	0	0	0	FR3	1	R1163T
1000.93	13.431	147216	PRACTICE_REC_END	n/a	n/a	n/a	-999	0	-1	[0, 0, 0]	n/a	0	0	0	n/a	n/a	0.0	0	0	0	FR3	1	R1163T
1014.361	0.5	160646	TRIAL	n/a	n/a	n/a	-999	0	1	[0, 0, 0]	n/a	0	0	0	n/a	n/a	0.0	0	0	0	FR3	1	R1163T
1014.861	10.0	161146	COUNTDOWN_START	n/a	n/a	n/a	-999	0	1	[0, 0, 0]	n/a	0	0	0	n/a	n/a	0.0	0	0	0	FR3	1	R1163T
1025.289	0.008	171574	COUNTDOWN_END	n/a	n/a	n/a	-999	0	1	[0, 0, 0]	n/a	0	0	0	n/a	n/a	0.0	0	0	0	FR3	1	R1163T
1025.297	1.6	171582	ORIENT	n/a	n/a	n/a	-999	0	1	[0, 0, 0]	n/a	0	0	0	n/a	n/a	0.0	0	0	0	FR3	1	R1163T
1026.913	2.017	173197	ORIENT_OFF	n/a	n/a	n/a	-999	0	1	[0, 0, 0]	n/a	0	0	0	n/a	n/a	0.0	0	0	0	FR3	1	R1163T
1028.93	1.6	175214	WORD	n/a	wordpools/wordpool.txt	CAGE	1	0	1	[0, 0, 0]	n/a	0	0	0	n/a	n/a	0.0	0	0	0	FR3	1	R1163T
1030.547	0.817	176831	WORD_OFF	n/a	n/a	CAGE	1	0	1	[0, 0, 0]	n/a	0	0	0	n/a	n/a	0.0	0	0	0	FR3	1	R1163T
1031.364	1.6	177648	WORD	n/a	wordpools/wordpool.txt	HILL	2	0	1	[0, 0, 0]	n/a	0	0	0	n/a	n/a	0.0	0	0	0	FR3	1	R1163T
1032.965	0.899	179249	WORD_OFF	n/a	n/a	HILL	2	0	1	[0, 0, 0]	n/a	0	0	0	n/a	n/a	0.0	0	0	0	FR3	1	R1163T
1033.864	1.6	180148	WORD	n/a	wordpools/wordpool.txt	FISH	3	0	1	[0, 0, 0]	n/a	0	0	0	n/a	n/a	0.0	0	0	0	FR3	1	R1163T
1035.481	0.984	181765	WORD_OFF	n/a	n/a	FISH	3	0	1	[0, 0, 0]	n/a	0	0	0	n/a	n/a	0.0	0	0	0	FR3	1	R1163T
1036.465	1.6	182749	WORD	n/a	wordpools/wordpool.txt	AXE	4	0	1	[0, 0, 0]	n/a	0	0	0	n/a	n/a	0.0	0	0	0	FR3	1	R1163T
1038.083	0.815	184367	WORD_OFF	n/a	n/a	AXE	4	0	1	[0, 0, 0]	n/a	0	0	0	n/a	n/a	0.0	0	0	0	FR3	1	R1163T
1038.898	1.6	185182	WORD	n/a	wordpools/wordpool.txt	TENT	5	0	1	[0, 0, 0]	n/a	0	0	0	n/a	n/a	0.0	0	0	0	FR3	1	R1163T
1040.515	0.867	186799	WORD_OFF	n/a	n/a	TENT	5	0	1	[0, 0, 0]	n/a	0	0	0	n/a	n/a	0.0	0	0	0	FR3	1	R1163T
1041.382	1.6	187666	WORD	n/a	wordpools/wordpool.txt	SMILE	6	0	1	[0, 0, 0]	n/a	0	0	0	n/a	n/a	0.0	0	0	0	FR3	1	R1163T
1043.0	0.783	189284	WORD_OFF	n/a	n/a	SMILE	6	0	1	[0, 0, 0]	n/a	0	0	0	n/a	n/a	0.0	0	0	0	FR3	1	R1163T
1043.783	1.6	190066	WORD	n/a	wordpools/wordpool.txt	BARN	7	0	1	[0, 0, 0]	n/a	0	0	0	n/a	n/a	0.0	0	0	0	FR3	1	R1163T
1045.4	0.917	191683	WORD_OFF	n/a	n/a	BARN	7	0	1	[0, 0, 0]	n/a	0	0	0	n/a	n/a	0.0	0	0	0	FR3	1	R1163T
1046.317	1.6	192600	WORD	n/a	wordpools/wordpool.txt	ANT	8	0	1	[0, 0, 0]	n/a	0	0	0	n/a	n/a	0.0	0	0	0	FR3	1	R1163T
1047.933	0.967	194216	WORD_OFF	n/a	n/a	ANT	8	0	1	[0, 0, 0]	n/a	0	0	0	n/a	n/a	0.0	0	0	0	FR3	1	R1163T
1048.9	1.6	195183	WORD	n/a	wordpools/wordpool.txt	FLUTE	9	0	1	[0, 0, 0]	n/a	0	0	0	n/a	n/a	0.0	0	0	0	FR3	1	R1163T
1050.517	0.801	196800	WORD_OFF	n/a	n/a	FLUTE	9	0	1	[0, 0, 0]	n/a	0	0	0	n/a	n/a	0.0	0	0	0	FR3	1	R1163T
1051.318	1.6	197601	WORD	n/a	wordpools/wordpool.txt	VASE	10	1	1	[0, 0, 0]	n/a	0	0	0	n/a	n/a	0.0	0	0	0	FR3	1	R1163T
1052.934	0.934	199217	WORD_OFF	n/a	n/a	VASE	10	0	1	[0, 0, 0]	n/a	0	0	0	n/a	n/a	0.0	0	0	0	FR3	1	R1163T
1053.868	1.6	200151	WORD	n/a	wordpools/wordpool.txt	SIGN	11	0	1	[0, 0, 0]	n/a	0	0	0	n/a	n/a	0.0	0	0	0	FR3	1	R1163T
1055.485	0.818	201768	WORD_OFF	n/a	n/a	SIGN	11	0	1	[0, 0, 0]	n/a	0	0	0	n/a	n/a	0.0	0	0	0	FR3	1	R1163T
1056.303	1.6	202586	WORD	n/a	wordpools/wordpool.txt	GLASS	12	0	1	[0, 0, 0]	n/a	0	0	0	n/a	n/a	0.0	0	0	0	FR3	1	R1163T
1057.918	0.0	204201	WORD_OFF	n/a	n/a	GLASS	12	0	1	[0, 0, 0]	n/a	0	0	0	n/a	n/a	0.0	0	0	0	FR3	1	R1163T
1057.918	0.001	204201	DISTRACT_START	n/a	n/a	n/a	-999	0	1	[0, 0, 0]	n/a	0	0	0	n/a	n/a	0.0	0	0	0	FR3	1	R1163T
1057.919	0.016	204202	START	n/a	n/a	n/a	-999	0	1	[-999, -999, -999]	n/a	0	0	0	n/a	n/a	0.0	0	0	0	FR3	1	R1163T
1057.935	7.618	204218	PROB	7.583	n/a	n/a	-999	0	1	[5, 6, 6]	14	0	0	0	n/a	n/a	0.0	0	0	0	FR3	1	R1163T
1065.553	11.369	211835	PROB	11.343	n/a	n/a	-999	0	1	[6, 2, 4]	60	0	0	0	n/a	n/a	0.0	0	0	0	FR3	1	R1163T
1076.922	11.014	223204	PROB	11.014	n/a	n/a	-999	0	1	[8, 3, 2]	13	0	0	0	n/a	n/a	0.0	0	0	0	FR3	1	R1163T
1087.936	0.022	234217	STOP	n/a	n/a	n/a	-999	0	1	[-999, -999, -999]	n/a	0	0	0	n/a	n/a	0.0	0	0	0	FR3	1	R1163T
1087.958	0.583	234239	DISTRACT_END	n/a	n/a	n/a	-999	0	1	[0, 0, 0]	n/a	0	0	0	n/a	n/a	0.0	0	0	0	FR3	1	R1163T
1088.541	0.5	234822	RETRIEVAL_ORIENT	n/a	n/a	n/a	-999	0	1	[0, 0, 0]	n/a	0	0	0	n/a	n/a	0.0	0	0	0	FR3	1	R1163T
1089.059	4.851	235340	REC_START	n/a	n/a	n/a	-999	0	1	[0, 0, 0]	n/a	0	0	0	n/a	n/a	0.0	0	0	0	FR3	1	R1163T
1093.91	11.993	240191	REC_WORD	4.851	n/a	VASE	10	1	1	[0, 0, 0]	n/a	0	0	0	n/a	n/a	0.0	0	0	0	FR3	1	R1163T
1105.903	13.166	252183	REC_WORD	16.844	n/a	GREEN	-999	0	1	[0, 0, 0]	n/a	0	0	0	n/a	n/a	0.0	0	0	0	FR3	1	R1163T
1119.069	4.662	265348	REC_END	n/a	n/a	n/a	-999	0	1	[0, 0, 0]	n/a	0	0	0	n/a	n/a	0.0	0	0	0	FR3	1	R1163T
1123.731	0.5	270010	TRIAL	n/a	n/a	n/a	-999	0	2	[0, 0, 0]	n/a	0	0	0	n/a	n/a	0.0	0	0	0	FR3	1	R1163T
1124.231	10.0	270510	COUNTDOWN_START	n/a	n/a	n/a	-999	0	2	[0, 0, 0]	n/a	0	0	0	n/a	n/a	0.0	0	0	0	FR3	1	R1163T
1134.659	0.007	280937	COUNTDOWN_END	n/a	n/a	n/a	-999	0	2	[0, 0, 0]	n/a	0	0	0	n/a	n/a	0.0	0	0	0	FR3	1	R1163T
1134.666	1.6	280944	ORIENT	n/a	n/a	n/a	-999	0	2	[0, 0, 0]	n/a	0	0	0	n/a	n/a	0.0	0	0	0	FR3	1	R1163T
1136.284	1.983	282562	ORIENT_OFF	n/a	n/a	n/a	-999	0	2	[0, 0, 0]	n/a	0	0	0	n/a	n/a	0.0	0	0	0	FR3	1	R1163T
1138.267	1.6	284545	WORD	n/a	wordpools/wordpool.txt	FACE	1	0	2	[0, 0, 0]	n/a	0	0	0	n/a	n/a	0.0	0	0	0	FR3	1	R1163T
1139.883	0.851	286161	WORD_OFF	n/a	n/a	FACE	1	0	2	[0, 0, 0]	n/a	0	0	0	n/a	n/a	0.0	0	0	0	FR3	1	R1163T
1140.734	1.6	287012	WORD	n/a	wordpools/wordpool.txt	TRASH	2	0	2	[0, 0, 0]	n/a	0	0	0	n/a	n/a	0.0	0	0	0	FR3	1	R1163T
1142.35	1.001	288628	WORD_OFF	n/a	n/a	TRASH	2	0	2	[0, 0, 0]	n/a	0	0	0	n/a	n/a	0.0	0	0	0	FR3	1	R1163T
1143.351	1.6	289629	WORD	n/a	wordpools/wordpool.txt	BEAN	3	0	2	[0, 0, 0]	n/a	0	0	0	n/a	n/a	0.0	0	0	0	FR3	1	R1163T
1144.969	0.816	291247	WORD_OFF	n/a	n/a	BEAN	3	0	2	[0, 0, 0]	n/a	0	0	0	n/a	n/a	0.0	0	0	0	FR3	1	R1163T
1145.785	1.6	292062	WORD	n/a	wordpools/wordpool.txt	VAN	4	0	2	[0, 0, 0]	n/a	0	0	0	n/a	n/a	0.0	0	0	0	FR3	1	R1163T
1147.401	0.868	293678	WORD_OFF	n/a	n/a	VAN	4	0	2	[0, 0, 0]	n/a	0	0	0	n/a	n/a	0.0	0	0	0	FR3	1	R1163T
1148.269	1.6	294546	WORD	n/a	wordpools/wordpool.txt	PEAR	5	0	2	[0, 0, 0]	n/a	0	0	0	n/a	n/a	0.0	0	0	0	FR3	1	R1163T
1149.885	0.934	296162	WORD_OFF	n/a	n/a	PEAR	5	0	2	[0, 0, 0]	n/a	0	0	0	n/a	n/a	0.0	0	0	0	FR3	1	R1163T
1150.819	1.6	297096	WORD	n/a	wordpools/wordpool.txt	STRAW	6	0	2	[0, 0, 0]	n/a	0	0	0	n/a	n/a	0.0	0	0	0	FR3	1	R1163T
1152.436	0.933	298713	WORD_OFF	n/a	n/a	STRAW	6	0	2	[0, 0, 0]	n/a	0	0	0	n/a	n/a	0.0	0	0	0	FR3	1	R1163T
1153.369	1.6	299646	WORD	n/a	wordpools/wordpool.txt	EGG	7	0	2	[0, 0, 0]	n/a	0	0	0	n/a	n/a	0.0	0	0	0	FR3	1	R1163T
1154.97	0.816	301247	WORD_OFF	n/a	n/a	EGG	7	0	2	[0, 0, 0]	n/a	0	0	0	n/a	n/a	0.0	0	0	0	FR3	1	R1163T
1155.786	1.6	302063	WORD	n/a	wordpools/wordpool.txt	BALL	8	0	2	[0, 0, 0]	n/a	0	0	0	n/a	n/a	0.0	0	0	0	FR3	1	R1163T
1157.403	0.967	303680	WORD_OFF	n/a	n/a	BALL	8	0	2	[0, 0, 0]	n/a	0	0	0	n/a	n/a	0.0	0	0	0	FR3	1	R1163T
1158.37	1.6	304647	WORD	n/a	wordpools/wordpool.txt	FOAM	9	0	2	[0, 0, 0]	n/a	0	0	0	n/a	n/a	0.0	0	0	0	FR3	1	R1163T
1159.971	0.966	306248	WORD_OFF	n/a	n/a	FOAM	9	0	2	[0, 0, 0]	n/a	0	0	0	n/a	n/a	0.0	0	0	0	FR3	1	R1163T
1160.937	1.6	307214	WORD	n/a	wordpools/wordpool.txt	LAWN	10	1	2	[0, 0, 0]	n/a	0	0	0	n/a	n/a	0.0	0	0	0	FR3	1	R1163T
1162.554	1.017	308830	WORD_OFF	n/a	n/a	LAWN	10	0	2	[0, 0, 0]	n/a	0	0	0	n/a	n/a	0.0	0	0	0	FR3	1	R1163T
1163.571	1.6	309847	WORD	n/a	wordpools/wordpool.txt	HAWK	11	1	2	[0, 0, 0]	n/a	0	0	0	n/a	n/a	0.0	0	0	0	FR3	1	R1163T
1165.189	0.917	311465	WORD_OFF	n/a	n/a	HAWK	11	0	2	[0, 0, 0]	n/a	0	0	0	n/a	n/a	0.0	0	0	0	FR3	1	R1163T
1166.106	1.6	312382	WORD	n/a	wordpools/wordpool.txt	BEAK	12	0	2	[0, 0, 0]	n/a	0	0	0	n/a	n/a	0.0	0	0	0	FR3	1	R1163T
1167.722	0.0	313998	DISTRACT_START	n/a	n/a	n/a	-999	0	2	[0, 0, 0]	n/a	0	0	0	n/a	n/a	0.0	0	0	0	FR3	1	R1163T
1167.722	0.0	313998	WORD_OFF	n/a	n/a	BEAK	12	0	2	[0, 0, 0]	n/a	0	0	0	n/a	n/a	0.0	0	0	0	FR3	1	R1163T
1167.722	0.016	313998	START	n/a	n/a	n/a	-999	0	2	[-999, -999, -999]	n/a	0	0	0	n/a	n/a	0.0	0	0	0	FR3	1	R1163T
1167.738	9.035	314014	PROB	9.005	n/a	n/a	-999	0	2	[8, 5, 4]	17	0	0	0	n/a	n/a	0.0	0	0	0	FR3	1	R1163T
1176.773	9.752	323049	PROB	9.73	n/a	n/a	-999	0	2	[6, 2, 7]	13	0	0	0	n/a	n/a	0.0	0	0	0	FR3	1	R1163T
1186.525	9.033	332800	PROB	9.033	n/a	n/a	-999	0	2	[6, 5, 2]	11	0	0	0	n/a	n/a	0.0	0	0	0	FR3	1	R1163T
1195.558	0.019	341833	STOP	n/a	n/a	n/a	-999	0	2	[-999, -999, -999]	n/a	0	0	0	n/a	n/a	0.0	0	0	0	FR3	1	R1163T
1195.577	0.618	341852	DISTRACT_END	n/a	n/a	n/a	-999	0	2	[0, 0, 0]	n/a	0	0	0	n/a	n/a	0.0	0	0	0	FR3	1	R1163T
1196.195	0.5	342470	RETRIEVAL_ORIENT	n/a	n/a	n/a	-999	0	2	[0, 0, 0]	n/a	0	0	0	n/a	n/a	0.0	0	0	0	FR3	1	R1163T
1196.711	1.522	342985	REC_START	n/a	n/a	n/a	-999	0	2	[0, 0, 0]	n/a	0	0	0	n/a	n/a	0.0	0	0	0	FR3	1	R1163T
1198.233	7.692	344507	REC_WORD	1.522	n/a	LAWN	10	1	2	[0, 0, 0]	n/a	0	0	0	n/a	n/a	0.0	0	0	0	FR3	1	R1163T
1205.925	20.797	352199	REC_WORD	9.214	n/a	HAWK	11	1	2	[0, 0, 0]	n/a	0	0	0	n/a	n/a	0.0	0	0	0	FR3	1	R1163T
1226.722	4.678	372995	REC_END	n/a	n/a	n/a	-999	0	2	[0, 0, 0]	n/a	0	0	0	n/a	n/a	0.0	0	0	0	FR3	1	R1163T
1231.4	0.5	377672	TRIAL	n/a	n/a	n/a	-999	0	3	[0, 0, 0]	n/a	0	0	0	n/a	n/a	0.0	0	0	0	FR3	1	R1163T
1231.9	10.0	378172	COUNTDOWN_START	n/a	n/a	n/a	-999	0	3	[0, 0, 0]	n/a	0	0	0	n/a	n/a	0.0	0	0	0	FR3	1	R1163T
1242.328	0.007	388600	COUNTDOWN_END	n/a	n/a	n/a	-999	0	3	[0, 0, 0]	n/a	0	0	0	n/a	n/a	0.0	0	0	0	FR3	1	R1163T
1242.335	1.6	388607	ORIENT	n/a	n/a	n/a	-999	0	3	[0, 0, 0]	n/a	0	0	0	n/a	n/a	0.0	0	0	0	FR3	1	R1163T
1243.953	2.017	390225	ORIENT_OFF	n/a	n/a	n/a	-999	0	3	[0, 0, 0]	n/a	0	0	0	n/a	n/a	0.0	0	0	0	FR3	1	R1163T
1245.97	1.6	392242	WORD	n/a	wordpools/wordpool.txt	MAT	1	1	3	[0, 0, 0]	n/a	0	0	0	n/a	n/a	0.0	0	0	0	FR3	1	R1163T
1247.586	0.951	393857	WORD_OFF	n/a	n/a	MAT	1	0	3	[0, 0, 0]	n/a	0	0	0	n/a	n/a	0.0	0	0	0	FR3	1	R1163T
1248.537	1.6	394808	WORD	n/a	wordpools/wordpool.txt	LIP	2	0	3	[0, 0, 0]	n/a	0	0	0	n/a	n/a	0.0	0	0	0	FR3	1	R1163T
1250.155	0.966	396426	WORD_OFF	n/a	n/a	LIP	2	0	3	[0, 0, 0]	n/a	0	0	0	n/a	n/a	0.0	0	0	0	FR3	1	R1163T
1251.121	1.6	397392	WORD	n/a	wordpools/wordpool.txt	PANTS	3	0	3	[0, 0, 0]	n/a	0	0	0	n/a	n/a	0.0	0	0	0	FR3	1	R1163T
1252.737	0.817	399008	WORD_OFF	n/a	n/a	PANTS	3	0	3	[0, 0, 0]	n/a	0	0	0	n/a	n/a	0.0	0	0	0	FR3	1	R1163T
1253.554	1.6	399825	WORD	n/a	wordpools/wordpool.txt	CLIFF	4	0	3	[0, 0, 0]	n/a	0	0	0	n/a	n/a	0.0	0	0	0	FR3	1	R1163T
1255.172	0.867	401443	WORD_OFF	n/a	n/a	CLIFF	4	0	3	[0, 0, 0]	n/a	0	0	0	n/a	n/a	0.0	0	0	0	FR3	1	R1163T
1256.039	1.6	402310	WORD	n/a	wordpools/wordpool.txt	GRAPE	5	0	3	[0, 0, 0]	n/a	0	0	0	n/a	n/a	0.0	0	0	0	FR3	1	R1163T
1257.655	0.983	403926	WORD_OFF	n/a	n/a	GRAPE	5	0	3	[0, 0, 0]	n/a	0	0	0	n/a	n/a	0.0	0	0	0	FR3	1	R1163T
1258.638	1.6	404909	WORD	n/a	wordpools/wordpool.txt	PIN	6	0	3	[0, 0, 0]	n/a	0	0	0	n/a	n/a	0.0	0	0	0	FR3	1	R1163T
1260.24	0.95	406511	WORD_OFF	n/a	n/a	PIN	6	0	3	[0, 0, 0]	n/a	0	0	0	n/a	n/a	0.0	0	0	0	FR3	1	R1163T
1261.19	1.6	407461	WORD	n/a	wordpools/wordpool.txt	COW	7	0	3	[0, 0, 0]	n/a	0	0	0	n/a	n/a	0.0	0	0	0	FR3	1	R1163T
1262.806	0.933	409077	WORD_OFF	n/a	n/a	COW	7	0	3	[0, 0, 0]	n/a	0	0	0	n/a	n/a	0.0	0	0	0	FR3	1	R1163T
1263.739	1.6	410010	WORD	n/a	wordpools/wordpool.txt	ELF	8	0	3	[0, 0, 0]	n/a	0	0	0	n/a	n/a	0.0	0	0	0	FR3	1	R1163T
1265.356	0.968	411626	WORD_OFF	n/a	n/a	ELF	8	0	3	[0, 0, 0]	n/a	0	0	0	n/a	n/a	0.0	0	0	0	FR3	1	R1163T
1266.324	1.6	412594	WORD	n/a	wordpools/wordpool.txt	WING	9	0	3	[0, 0, 0]	n/a	0	0	0	n/a	n/a	0.0	0	0	0	FR3	1	R1163T
1267.94	0.9	414210	WORD_OFF	n/a	n/a	WING	9	0	3	[0, 0, 0]	n/a	0	0	0	n/a	n/a	0.0	0	0	0	FR3	1	R1163T
1268.84	1.6	415110	WORD	n/a	wordpools/wordpool.txt	KEY	10	0	3	[0, 0, 0]	n/a	0	0	0	n/a	n/a	0.0	0	0	0	FR3	1	R1163T
1270.457	0.984	416727	WORD_OFF	n/a	n/a	KEY	10	0	3	[0, 0, 0]	n/a	0	0	0	n/a	n/a	0.0	0	0	0	FR3	1	R1163T
1271.441	1.6	417711	WORD	n/a	wordpools/wordpool.txt	WHEEL	11	0	3	[0, 0, 0]	n/a	0	0	0	n/a	n/a	0.0	0	0	0	FR3	1	R1163T
1273.059	0.983	419329	WORD_OFF	n/a	n/a	WHEEL	11	0	3	[0, 0, 0]	n/a	0	0	0	n/a	n/a	0.0	0	0	0	FR3	1	R1163T
1274.042	1.6	420312	WORD	n/a	wordpools/wordpool.txt	CROW	12	0	3	[0, 0, 0]	n/a	0	0	0	n/a	n/a	0.0	0	0	0	FR3	1	R1163T
1275.658	0.0	421928	WORD_OFF	n/a	n/a	CROW	12	0	3	[0, 0, 0]	n/a	0	0	0	n/a	n/a	0.0	0	0	0	FR3	1	R1163T
1275.658	0.001	421928	DISTRACT_START	n/a	n/a	n/a	-999	0	3	[0, 0, 0]	n/a	0	0	0	n/a	n/a	0.0	0	0	0	FR3	1	R1163T
1275.659	0.016	421929	START	n/a	n/a	n/a	-999	0	3	[-999, -999, -999]	n/a	0	0	0	n/a	n/a	0.0	0	0	0	FR3	1	R1163T
1275.675	15.953	421945	PROB	15.924	n/a	n/a	-999	0	3	[5, 3, 2]	10	0	0	0	n/a	n/a	0.0	0	0	0	FR3	1	R1163T
1291.628	8.778	437897	PROB	8.778	n/a	n/a	-999	0	3	[4, 1, 1]	6	0	0	0	n/a	n/a	0.0	0	0	0	FR3	1	R1163T
1300.406	0.006	446674	STOP	n/a	n/a	n/a	-999	0	3	[-999, -999, -999]	n/a	0	0	0	n/a	n/a	0.0	0	0	0	FR3	1	R1163T
1300.412	0.619	446680	DISTRACT_END	n/a	n/a	n/a	-999	0	3	[0, 0, 0]	n/a	0	0	0	n/a	n/a	0.0	0	0	0	FR3	1	R1163T
1301.031	0.5	447299	RETRIEVAL_ORIENT	n/a	n/a	n/a	-999	0	3	[0, 0, 0]	n/a	0	0	0	n/a	n/a	0.0	0	0	0	FR3	1	R1163T
1301.547	1.283	447815	REC_START	n/a	n/a	n/a	-999	0	3	[0, 0, 0]	n/a	0	0	0	n/a	n/a	0.0	0	0	0	FR3	1	R1163T
1302.83	28.727	449098	REC_WORD	1.283	n/a	MAT	1	1	3	[0, 0, 0]	n/a	0	0	0	n/a	n/a	0.0	0	0	0	FR3	1	R1163T
1331.557	5.563	477824	REC_END	n/a	n/a	n/a	-999	0	3	[0, 0, 0]	n/a	0	0	0	n/a	n/a	0.0	0	0	0	FR3	1	R1163T
1337.12	0.5	483386	TRIAL	n/a	n/a	n/a	-999	0	4	[0, 0, 0]	n/a	0	1	0	n/a	n/a	0.0	0	0	0	FR3	1	R1163T
1337.62	10.0	483886	COUNTDOWN_START	n/a	n/a	n/a	-999	0	4	[0, 0, 0]	n/a	0	1	0	n/a	n/a	0.0	0	0	0	FR3	1	R1163T
1348.048	0.008	494314	COUNTDOWN_END	n/a	n/a	n/a	-999	0	4	[0, 0, 0]	n/a	0	1	0	n/a	n/a	0.0	0	0	0	FR3	1	R1163T
1348.056	1.6	494322	ORIENT	n/a	n/a	n/a	-999	0	4	[0, 0, 0]	n/a	0	1	0	n/a	n/a	0.0	0	0	0	FR3	1	R1163T
1349.672	2.066	495937	ORIENT_OFF	n/a	n/a	n/a	-999	0	4	[0, 0, 0]	n/a	0	1	0	n/a	n/a	0.0	0	0	0	FR3	1	R1163T
1351.738	1.6	498003	WORD	n/a	wordpools/wordpool.txt	GUARD	1	0	4	[0, 0, 0]	n/a	0	1	0	n/a	n/a	0.0	0	0	0	FR3	1	R1163T
1353.252	0.0	499517	STIM_ON	n/a	n/a	GUARD	1	0	4	[0, 0, 0]	n/a	1	1	500	LC8	LC9	500.0	10	5	300	FR3	1	R1163T
1353.356	0.296	499621	WORD_OFF	n/a	n/a	GUARD	1	0	4	[0, 0, 0]	n/a	1	1	500	LC8	LC9	500.0	10	5	300	FR3	1	R1163T
1353.652	0.588	499917	STIM_OFF	n/a	n/a	n/a	1	0	4	[0, 0, 0]	n/a	0	1	500	LC8	LC9	500.0	10	5	300	FR3	1	R1163T
1354.24	1.6	500505	WORD	n/a	wordpools/wordpool.txt	SQUARE	2	0	4	[0, 0, 0]	n/a	0	1	0	n/a	n/a	0.0	0	0	0	FR3	1	R1163T
1355.748	0.0	502013	STIM_ON	n/a	n/a	SQUARE	2	0	4	[0, 0, 0]	n/a	1	1	500	LC8	LC9	500.0	10	5	300	FR3	1	R1163T
1355.856	0.292	502121	WORD_OFF	n/a	n/a	SQUARE	2	0	4	[0, 0, 0]	n/a	1	1	500	LC8	LC9	500.0	10	5	300	FR3	1	R1163T
1356.148	0.475	502413	STIM_OFF	n/a	n/a	n/a	2	0	4	[0, 0, 0]	n/a	0	1	500	LC8	LC9	500.0	10	5	300	FR3	1	R1163T
1356.623	1.6	502888	WORD	n/a	wordpools/wordpool.txt	PEA	3	0	4	[0, 0, 0]	n/a	0	1	0	n/a	n/a	0.0	0	0	0	FR3	1	R1163T
1358.224	0.884	504489	WORD_OFF	n/a	n/a	PEA	3	0	4	[0, 0, 0]	n/a	0	1	0	n/a	n/a	0.0	0	0	0	FR3	1	R1163T
1359.108	1.6	505373	WORD	n/a	wordpools/wordpool.txt	ROOT	4	1	4	[0, 0, 0]	n/a	0	1	0	n/a	n/a	0.0	0	0	0	FR3	1	R1163T
1360.724	0.8	506989	WORD_OFF	n/a	n/a	ROOT	4	0	4	[0, 0, 0]	n/a	0	1	0	n/a	n/a	0.0	0	0	0	FR3	1	R1163T
1361.524	1.6	507789	WORD	n/a	wordpools/wordpool.txt	BEACH	5	0	4	[0, 0, 0]	n/a	0	1	0	n/a	n/a	0.0	0	0	0	FR3	1	R1163T
1363.031	0.0	509296	STIM_ON	n/a	n/a	BEACH	5	0	4	[0, 0, 0]	n/a	1	1	500	LC8	LC9	500.0	10	5	300	FR3	1	R1163T
1363.142	0.289	509407	WORD_OFF	n/a	n/a	BEACH	5	0	4	[0, 0, 0]	n/a	1	1	500	LC8	LC9	500.0	10	5	300	FR3	1	R1163T
1363.431	0.628	509696	STIM_OFF	n/a	n/a	n/a	5	0	4	[0, 0, 0]	n/a	0	1	500	LC8	LC9	500.0	10	5	300	FR3	1	R1163T
1364.059	1.6	510324	WORD	n/a	wordpools/wordpool.txt	SPONGE	6	0	4	[0, 0, 0]	n/a	0	1	0	n/a	n/a	0.0	0	0	0	FR3	1	R1163T
1365.572	0.0	511837	STIM_ON	n/a	n/a	SPONGE	6	0	4	[0, 0, 0]	n/a	1	1	500	LC8	LC9	500.0	10	5	300	FR3	1	R1163T
1365.675	0.297	511940	WORD_OFF	n/a	n/a	SPONGE	6	0	4	[0, 0, 0]	n/a	1	1	500	LC8	LC9	500.0	10	5	300	FR3	1	R1163T
1365.972	0.503	512236	STIM_OFF	n/a	n/a	n/a	6	0	4	[0, 0, 0]	n/a	0	1	500	LC8	LC9	500.0	10	5	300	FR3	1	R1163T
1366.475	1.6	512739	WORD	n/a	wordpools/wordpool.txt	CUP	7	0	4	[0, 0, 0]	n/a	0	1	0	n/a	n/a	0.0	0	0	0	FR3	1	R1163T
1367.985	0.0	514249	STIM_ON	n/a	n/a	CUP	7	0	4	[0, 0, 0]	n/a	1	1	500	LC8	LC9	500.0	10	5	300	FR3	1	R1163T
1368.093	0.292	514357	WORD_OFF	n/a	n/a	CUP	7	0	4	[0, 0, 0]	n/a	1	1	500	LC8	LC9	500.0	10	5	300	FR3	1	R1163T
1368.385	0.658	514649	STIM_OFF	n/a	n/a	n/a	7	0	4	[0, 0, 0]	n/a	0	1	500	LC8	LC9	500.0	10	5	300	FR3	1	R1163T
1369.043	1.6	515307	WORD	n/a	wordpools/wordpool.txt	THREAD	8	0	4	[0, 0, 0]	n/a	0	1	0	n/a	n/a	0.0	0	0	0	FR3	1	R1163T
1370.552	0.0	516816	STIM_ON	n/a	n/a	THREAD	8	0	4	[0, 0, 0]	n/a	1	1	500	LC8	LC9	500.0	10	5	300	FR3	1	R1163T
1370.659	0.293	516923	WORD_OFF	n/a	n/a	THREAD	8	0	4	[0, 0, 0]	n/a	1	1	500	LC8	LC9	500.0	10	5	300	FR3	1	R1163T
1370.952	0.64	517216	STIM_OFF	n/a	n/a	n/a	8	0	4	[0, 0, 0]	n/a	0	1	500	LC8	LC9	500.0	10	5	300	FR3	1	R1163T
1371.592	1.6	517856	WORD	n/a	wordpools/wordpool.txt	JUDGE	9	0	4	[0, 0, 0]	n/a	0	1	0	n/a	n/a	0.0	0	0	0	FR3	1	R1163T
1373.104	0.0	519368	STIM_ON	n/a	n/a	JUDGE	9	0	4	[0, 0, 0]	n/a	1	1	500	LC8	LC9	500.0	10	5	300	FR3	1	R1163T
1373.21	0.294	519474	WORD_OFF	n/a	n/a	JUDGE	9	0	4	[0, 0, 0]	n/a	1	1	500	LC8	LC9	500.0	10	5	300	FR3	1	R1163T
1373.504	0.506	519768	STIM_OFF	n/a	n/a	n/a	9	0	4	[0, 0, 0]	n/a	0	1	500	LC8	LC9	500.0	10	5	300	FR3	1	R1163T
1374.01	1.6	520274	WORD	n/a	wordpools/wordpool.txt	SWORD	10	0	4	[0, 0, 0]	n/a	0	1	0	n/a	n/a	0.0	0	0	0	FR3	1	R1163T
1375.525	0.0	521789	STIM_ON	n/a	n/a	SWORD	10	0	4	[0, 0, 0]	n/a	1	1	500	LC8	LC9	500.0	10	5	300	FR3	1	R1163T
1375.626	0.299	521890	WORD_OFF	n/a	n/a	SWORD	10	0	4	[0, 0, 0]	n/a	1	1	500	LC8	LC9	500.0	10	5	300	FR3	1	R1163T
1375.925	0.552	522189	STIM_OFF	n/a	n/a	n/a	10	0	4	[0, 0, 0]	n/a	0	1	500	LC8	LC9	500.0	10	5	300	FR3	1	R1163T
1376.477	1.6	522741	WORD	n/a	wordpools/wordpool.txt	GEESE	11	0	4	[0, 0, 0]	n/a	0	1	0	n/a	n/a	0.0	0	0	0	FR3	1	R1163T
1378.095	0.815	524359	WORD_OFF	n/a	n/a	GEESE	11	0	4	[0, 0, 0]	n/a	0	1	0	n/a	n/a	0.0	0	0	0	FR3	1	R1163T
1378.91	1.6	525174	WORD	n/a	wordpools/wordpool.txt	FILM	12	0	4	[0, 0, 0]	n/a	0	1	0	n/a	n/a	0.0	0	0	0	FR3	1	R1163T
1380.426	0.0	526690	STIM_ON	n/a	n/a	FILM	12	0	4	[0, 0, 0]	n/a	1	1	500	LC8	LC9	500.0	10	5	300	FR3	1	R1163T
1380.527	0.0	526791	WORD_OFF	n/a	n/a	FILM	12	0	4	[0, 0, 0]	n/a	1	1	500	LC8	LC9	500.0	10	5	300	FR3	1	R1163T
1380.527	0.001	526791	DISTRACT_START	n/a	n/a	n/a	-999	0	4	[0, 0, 0]	n/a	1	1	500	LC8	LC9	500.0	10	5	300	FR3	1	R1163T
1380.528	0.016	526792	START	n/a	n/a	n/a	-999	0	4	[-999, -999, -999]	n/a	0	1	0	n/a	n/a	0.0	0	0	0	FR3	1	R1163T
1380.544	0.282	526808	PROB	7.711	n/a	n/a	-999	0	4	[3, 5, 4]	11	0	1	0	n/a	n/a	0.0	0	0	0	FR3	1	R1163T
1380.826	7.454	527090	STIM_OFF	n/a	n/a	n/a	-999	0	4	[0, 0, 0]	n/a	0	1	500	LC8	LC9	500.0	10	5	300	FR3	1	R1163T
1388.28	10.685	534543	PROB	10.646	n/a	n/a	-999	0	4	[8, 1, 8]	11	0	1	0	n/a	n/a	0.0	0	0	0	FR3	1	R1163T
1398.965	8.187	545228	PROB	8.187	n/a	n/a	-999	0	4	[2, 3, 8]	13	0	1	0	n/a	n/a	0.0	0	0	0	FR3	1	R1163T
1407.152	0.015	553414	STOP	n/a	n/a	n/a	-999	0	4	[-999, -999, -999]	n/a	0	1	0	n/a	n/a	0.0	0	0	0	FR3	1	R1163T
1407.167	0.649	553429	DISTRACT_END	n/a	n/a	n/a	-999	0	4	[0, 0, 0]	n/a	0	1	0	n/a	n/a	0.0	0	0	0	FR3	1	R1163T
1407.816	0.5	554078	RETRIEVAL_ORIENT	n/a	n/a	n/a	-999	0	4	[0, 0, 0]	n/a	0	1	0	n/a	n/a	0.0	0	0	0	FR3	1	R1163T
1408.333	0.907	554595	REC_START	n/a	n/a	n/a	-999	0	4	[0, 0, 0]	n/a	0	1	0	n/a	n/a	0.0	0	0	0	FR3	1	R1163T
1409.24	29.103	555502	REC_WORD	0.907	n/a	ROOT	4	1	4	[0, 0, 0]	n/a	0	1	0	n/a	n/a	0.0	0	0	0	FR3	1	R1163T
1438.343	6.263	584603	REC_END	n/a	n/a	n/a	-999	0	4	[0, 0, 0]	n/a	0	1	0	n/a	n/a	0.0	0	0	0	FR3	1	R1163T
1444.606	0.5	590866	TRIAL	n/a	n/a	n/a	-999	0	5	[0, 0, 0]	n/a	0	1	0	n/a	n/a	0.0	0	0	0	FR3	1	R1163T
1445.106	10.0	591366	COUNTDOWN_START	n/a	n/a	n/a	-999	0	5	[0, 0, 0]	n/a	0	1	0	n/a	n/a	0.0	0	0	0	FR3	1	R1163T
1455.534	0.007	601793	COUNTDOWN_END	n/a	n/a	n/a	-999	0	5	[0, 0, 0]	n/a	0	1	0	n/a	n/a	0.0	0	0	0	FR3	1	R1163T
1455.541	1.6	601800	ORIENT	n/a	n/a	n/a	-999	0	5	[0, 0, 0]	n/a	0	1	0	n/a	n/a	0.0	0	0	0	FR3	1	R1163T
1457.159	2.117	603418	ORIENT_OFF	n/a	n/a	n/a	-999	0	5	[0, 0, 0]	n/a	0	1	0	n/a	n/a	0.0	0	0	0	FR3	1	R1163T
1459.276	1.6	605535	WORD	n/a	wordpools/wordpool.txt	BOARD	1	0	5	[0, 0, 0]	n/a	0	1	0	n/a	n/a	0.0	0	0	0	FR3	1	R1163T
1460.892	0.883	607151	WORD_OFF	n/a	n/a	BOARD	1	0	5	[0, 0, 0]	n/a	0	1	0	n/a	n/a	0.0	0	0	0	FR3	1	R1163T
1461.775	1.6	608034	WORD	n/a	wordpools/wordpool.txt	FROG	2	0	5	[0, 0, 0]	n/a	0	1	0	n/a	n/a	0.0	0	0	0	FR3	1	R1163T
1463.392	0.984	609651	WORD_OFF	n/a	n/a	FROG	2	0	5	[0, 0, 0]	n/a	0	1	0	n/a	n/a	0.0	0	0	0	FR3	1	R1163T
1464.376	1.6	610635	WORD	n/a	wordpools/wordpool.txt	JUICE	3	0	5	[0, 0, 0]	n/a	0	1	0	n/a	n/a	0.0	0	0	0	FR3	1	R1163T
1465.889	0.0	612148	STIM_ON	n/a	n/a	JUICE	3	0	5	[0, 0, 0]	n/a	1	1	500	LC8	LC9	500.0	10	5	300	FR3	1	R1163T
1465.994	0.295	612253	WORD_OFF	n/a	n/a	JUICE	3	0	5	[0, 0, 0]	n/a	1	1	500	LC8	LC9	500.0	10	5	300	FR3	1	R1163T
1466.289	0.537	612548	STIM_OFF	n/a	n/a	n/a	3	0	5	[0, 0, 0]	n/a	0	1	500	LC8	LC9	500.0	10	5	300	FR3	1	R1163T
1466.826	1.6	613085	WORD	n/a	wordpools/wordpool.txt	TRAIN	4	0	5	[0, 0, 0]	n/a	0	1	0	n/a	n/a	0.0	0	0	0	FR3	1	R1163T
1468.443	0.984	614701	WORD_OFF	n/a	n/a	TRAIN	4	0	5	[0, 0, 0]	n/a	0	1	0	n/a	n/a	0.0	0	0	0	FR3	1	R1163T
1469.427	1.6	615685	WORD	n/a	wordpools/wordpool.txt	LAMP	5	0	5	[0, 0, 0]	n/a	0	1	0	n/a	n/a	0.0	0	0	0	FR3	1	R1163T
1470.942	0.0	617200	STIM_ON	n/a	n/a	LAMP	5	0	5	[0, 0, 0]	n/a	1	1	500	LC8	LC9	500.0	10	5	300	FR3	1	R1163T
1471.045	0.298	617303	WORD_OFF	n/a	n/a	LAMP	5	0	5	[0, 0, 0]	n/a	1	1	500	LC8	LC9	500.0	10	5	300	FR3	1	R1163T
1471.343	0.602	617601	STIM_OFF	n/a	n/a	n/a	5	0	5	[0, 0, 0]	n/a	0	1	500	LC8	LC9	500.0	10	5	300	FR3	1	R1163T
1471.945	1.6	618203	WORD	n/a	wordpools/wordpool.txt	NET	6	0	5	[0, 0, 0]	n/a	0	1	0	n/a	n/a	0.0	0	0	0	FR3	1	R1163T
1473.467	0.0	619725	STIM_ON	n/a	n/a	NET	6	0	5	[0, 0, 0]	n/a	1	1	500	LC8	LC9	500.0	10	5	300	FR3	1	R1163T
1473.561	0.306	619819	WORD_OFF	n/a	n/a	NET	6	0	5	[0, 0, 0]	n/a	1	1	500	LC8	LC9	500.0	10	5	300	FR3	1	R1163T
1473.867	0.511	620125	STIM_OFF	n/a	n/a	n/a	6	0	5	[0, 0, 0]	n/a	0	1	500	LC8	LC9	500.0	10	5	300	FR3	1	R1163T
1474.378	1.6	620636	WORD	n/a	wordpools/wordpool.txt	BOX	7	0	5	[0, 0, 0]	n/a	0	1	0	n/a	n/a	0.0	0	0	0	FR3	1	R1163T
1475.979	0.949	622237	WORD_OFF	n/a	n/a	BOX	7	0	5	[0, 0, 0]	n/a	0	1	0	n/a	n/a	0.0	0	0	0	FR3	1	R1163T
1476.928	1.6	623186	WORD	n/a	wordpools/wordpool.txt	MOTH	8	0	5	[0, 0, 0]	n/a	0	1	0	n/a	n/a	0.0	0	0	0	FR3	1	R1163T
1478.545	0.784	624803	WORD_OFF	n/a	n/a	MOTH	8	0	5	[0, 0, 0]	n/a	0	1	0	n/a	n/a	0.0	0	0	0	FR3	1	R1163T
1479.329	1.6	625587	WORD	n/a	wordpools/wordpool.txt	SPRING	9	0	5	[0, 0, 0]	n/a	0	1	0	n/a	n/a	0.0	0	0	0	FR3	1	R1163T
1480.947	0.865	627205	WORD_OFF	n/a	n/a	SPRING	9	0	5	[0, 0, 0]	n/a	0	1	0	n/a	n/a	0.0	0	0	0	FR3	1	R1163T
1481.812	1.6	628070	WORD	n/a	wordpools/wordpool.txt	SNAIL	10	0	5	[0, 0, 0]	n/a	0	1	0	n/a	n/a	0.0	0	0	0	FR3	1	R1163T
1483.334	0.0	629592	STIM_ON	n/a	n/a	SNAIL	10	0	5	[0, 0, 0]	n/a	1	1	500	LC8	LC9	500.0	10	5	300	FR3	1	R1163T
1483.429	0.305	629687	WORD_OFF	n/a	n/a	SNAIL	10	0	5	[0, 0, 0]	n/a	1	1	500	LC8	LC9	500.0	10	5	300	FR3	1	R1163T
1483.734	0.546	629992	STIM_OFF	n/a	n/a	n/a	10	0	5	[0, 0, 0]	n/a	0	1	500	LC8	LC9	500.0	10	5	300	FR3	1	R1163T
1484.28	1.6	630538	WORD	n/a	wordpools/wordpool.txt	LEAF	11	0	5	[0, 0, 0]	n/a	0	1	0	n/a	n/a	0.0	0	0	0	FR3	1	R1163T
1485.796	0.0	632053	STIM_ON	n/a	n/a	LEAF	11	0	5	[0, 0, 0]	n/a	1	1	500	LC8	LC9	500.0	10	5	300	FR3	1	R1163T
1485.897	0.299	632154	WORD_OFF	n/a	n/a	LEAF	11	0	5	[0, 0, 0]	n/a	1	1	500	LC8	LC9	500.0	10	5	300	FR3	1	R1163T
1486.196	0.484	632453	STIM_OFF	n/a	n/a	n/a	11	0	5	[0, 0, 0]	n/a	0	1	500	LC8	LC9	500.0	10	5	300	FR3	1	R1163T
1486.68	1.6	632937	WORD	n/a	wordpools/wordpool.txt	FLAME	12	0	5	[0, 0, 0]	n/a	0	1	0	n/a	n/a	0.0	0	0	0	FR3	1	R1163T
1488.198	0.0	634455	STIM_ON	n/a	n/a	FLAME	12	0	5	[0, 0, 0]	n/a	1	1	500	LC8	LC9	500.0	10	5	300	FR3	1	R1163T
1488.298	0.0	634555	WORD_OFF	n/a	n/a	FLAME	12	0	5	[0, 0, 0]	n/a	1	1	500	LC8	LC9	500.0	10	5	300	FR3	1	R1163T
1488.298	0.001	634555	DISTRACT_START	n/a	n/a	n/a	-999	0	5	[0, 0, 0]	n/a	1	1	500	LC8	LC9	500.0	10	5	300	FR3	1	R1163T
1488.299	0.016	634556	START	n/a	n/a	n/a	-999	0	5	[-999, -999, -999]	n/a	0	1	0	n/a	n/a	0.0	0	0	0	FR3	1	R1163T
1488.315	0.283	634572	PROB	7.301	n/a	n/a	-999	0	5	[8, 2, 4]	14	0	1	0	n/a	n/a	0.0	0	0	0	FR3	1	R1163T
1488.598	7.05	634855	STIM_OFF	n/a	n/a	n/a	-999	0	5	[0, 0, 0]	n/a	0	1	500	LC8	LC9	500.0	10	5	300	FR3	1	R1163T
1495.648	12.337	641905	PROB	12.304	n/a	n/a	-999	0	5	[3, 3, 2]	6	0	1	0	n/a	n/a	0.0	0	0	0	FR3	1	R1163T
1507.985	6.631	654241	PROB	6.631	n/a	n/a	-999	0	5	[4, 7, 9]	12	0	1	0	n/a	n/a	0.0	0	0	0	FR3	1	R1163T
1514.616	0.019	660872	STOP	n/a	n/a	n/a	-999	0	5	[-999, -999, -999]	n/a	0	1	0	n/a	n/a	0.0	0	0	0	FR3	1	R1163T
1514.635	0.618	660891	DISTRACT_END	n/a	n/a	n/a	-999	0	5	[0, 0, 0]	n/a	0	1	0	n/a	n/a	0.0	0	0	0	FR3	1	R1163T
1515.253	0.5	661509	RETRIEVAL_ORIENT	n/a	n/a	n/a	-999	0	5	[0, 0, 0]	n/a	0	1	0	n/a	n/a	0.0	0	0	0	FR3	1	R1163T
1515.77	30.0	662026	REC_START	n/a	n/a	n/a	-999	0	5	[0, 0, 0]	n/a	0	1	0	n/a	n/a	0.0	0	0	0	FR3	1	R1163T
1545.77	0.01	692024	REC_WORD_VV	30.0	n/a	<>	-999	0	5	[0, 0, 0]	n/a	0	1	0	n/a	n/a	0.0	0	0	0	FR3	1	R1163T
1545.78	6.246	692034	REC_END	n/a	n/a	n/a	-999	0	5	[0, 0, 0]	n/a	0	1	0	n/a	n/a	0.0	0	0	0	FR3	1	R1163T
1552.026	0.5	698280	TRIAL	n/a	n/a	n/a	-999	0	6	[0, 0, 0]	n/a	0	1	0	n/a	n/a	0.0	0	0	0	FR3	1	R1163T
1552.526	10.0	698779	COUNTDOWN_START	n/a	n/a	n/a	-999	0	6	[0, 0, 0]	n/a	0	1	0	n/a	n/a	0.0	0	0	0	FR3	1	R1163T
1562.954	0.008	709207	COUNTDOWN_END	n/a	n/a	n/a	-999	0	6	[0, 0, 0]	n/a	0	1	0	n/a	n/a	0.0	0	0	0	FR3	1	R1163T
1562.962	1.6	709215	ORIENT	n/a	n/a	n/a	-999	0	6	[0, 0, 0]	n/a	0	1	0	n/a	n/a	0.0	0	0	0	FR3	1	R1163T
1564.578	2.05	710831	ORIENT_OFF	n/a	n/a	n/a	-999	0	6	[0, 0, 0]	n/a	0	1	0	n/a	n/a	0.0	0	0	0	FR3	1	R1163T
1566.628	1.6	712881	WORD	n/a	wordpools/wordpool.txt	TEA	1	1	6	[0, 0, 0]	n/a	0	1	0	n/a	n/a	0.0	0	0	0	FR3	1	R1163T
1568.246	0.8	714499	WORD_OFF	n/a	n/a	TEA	1	0	6	[0, 0, 0]	n/a	0	1	0	n/a	n/a	0.0	0	0	0	FR3	1	R1163T
1569.046	1.6	715299	WORD	n/a	wordpools/wordpool.txt	MOUSE	2	0	6	[0, 0, 0]	n/a	0	1	0	n/a	n/a	0.0	0	0	0	FR3	1	R1163T
1570.562	0.0	716814	STIM_ON	n/a	n/a	MOUSE	2	0	6	[0, 0, 0]	n/a	1	1	500	LC8	LC9	500.0	10	5	300	FR3	1	R1163T
1570.662	0.3	716914	WORD_OFF	n/a	n/a	MOUSE	2	0	6	[0, 0, 0]	n/a	1	1	500	LC8	LC9	500.0	10	5	300	FR3	1	R1163T
1570.962	0.567	717214	STIM_OFF	n/a	n/a	n/a	2	0	6	[0, 0, 0]	n/a	0	1	500	LC8	LC9	500.0	10	5	300	FR3	1	R1163T
1571.529	1.6	717781	WORD	n/a	wordpools/wordpool.txt	BADGE	3	0	6	[0, 0, 0]	n/a	0	1	0	n/a	n/a	0.0	0	0	0	FR3	1	R1163T
1573.147	0.933	719399	WORD_OFF	n/a	n/a	BADGE	3	0	6	[0, 0, 0]	n/a	0	1	0	n/a	n/a	0.0	0	0	0	FR3	1	R1163T
1574.08	1.6	720332	WORD	n/a	wordpools/wordpool.txt	CLOTH	4	0	6	[0, 0, 0]	n/a	0	1	0	n/a	n/a	0.0	0	0	0	FR3	1	R1163T
1575.604	0.0	721856	STIM_ON	n/a	n/a	CLOTH	4	0	6	[0, 0, 0]	n/a	1	1	500	LC8	LC9	500.0	10	5	300	FR3	1	R1163T
1575.696	0.308	721948	WORD_OFF	n/a	n/a	CLOTH	4	0	6	[0, 0, 0]	n/a	1	1	500	LC8	LC9	500.0	10	5	300	FR3	1	R1163T
1576.004	0.676	722256	STIM_OFF	n/a	n/a	n/a	4	0	6	[0, 0, 0]	n/a	0	1	500	LC8	LC9	500.0	10	5	300	FR3	1	R1163T
1576.68	1.6	722932	WORD	n/a	wordpools/wordpool.txt	RAIN	5	0	6	[0, 0, 0]	n/a	0	1	0	n/a	n/a	0.0	0	0	0	FR3	1	R1163T
1578.205	0.0	724457	STIM_ON	n/a	n/a	RAIN	5	0	6	[0, 0, 0]	n/a	1	1	500	LC8	LC9	500.0	10	5	300	FR3	1	R1163T
1578.298	0.307	724550	WORD_OFF	n/a	n/a	RAIN	5	0	6	[0, 0, 0]	n/a	1	1	500	LC8	LC9	500.0	10	5	300	FR3	1	R1163T
1578.605	0.693	724857	STIM_OFF	n/a	n/a	n/a	5	0	6	[0, 0, 0]	n/a	0	1	500	LC8	LC9	500.0	10	5	300	FR3	1	R1163T
1579.298	1.6	725550	WORD	n/a	wordpools/wordpool.txt	TRUCK	6	0	6	[0, 0, 0]	n/a	0	1	0	n/a	n/a	0.0	0	0	0	FR3	1	R1163T
1580.817	0.0	727069	STIM_ON	n/a	n/a	TRUCK	6	0	6	[0, 0, 0]	n/a	1	1	500	LC8	LC9	500.0	10	5	300	FR3	1	R1163T
1580.914	0.303	727166	WORD_OFF	n/a	n/a	TRUCK	6	0	6	[0, 0, 0]	n/a	1	1	500	LC8	LC9	500.0	10	5	300	FR3	1	R1163T
1581.217	0.63	727469	STIM_OFF	n/a	n/a	n/a	6	0	6	[0, 0, 0]	n/a	0	1	500	LC8	LC9	500.0	10	5	300	FR3	1	R1163T
1581.847	1.6	728099	WORD	n/a	wordpools/wordpool.txt	BOY	7	0	6	[0, 0, 0]	n/a	0	1	0	n/a	n/a	0.0	0	0	0	FR3	1	R1163T
1583.464	0.818	729716	WORD_OFF	n/a	n/a	BOY	7	0	6	[0, 0, 0]	n/a	0	1	0	n/a	n/a	0.0	0	0	0	FR3	1	R1163T
1584.282	1.6	730534	WORD	n/a	wordpools/wordpool.txt	DRESS	8	0	6	[0, 0, 0]	n/a	0	1	0	n/a	n/a	0.0	0	0	0	FR3	1	R1163T
1585.806	0.0	732058	STIM_ON	n/a	n/a	DRESS	8	0	6	[0, 0, 0]	n/a	1	1	500	LC8	LC9	500.0	10	5	300	FR3	1	R1163T
1585.898	0.308	732150	WORD_OFF	n/a	n/a	DRESS	8	0	6	[0, 0, 0]	n/a	1	1	500	LC8	LC9	500.0	10	5	300	FR3	1	R1163T
1586.206	0.559	732457	STIM_OFF	n/a	n/a	n/a	8	0	6	[0, 0, 0]	n/a	0	1	500	LC8	LC9	500.0	10	5	300	FR3	1	R1163T
1586.765	1.6	733016	WORD	n/a	wordpools/wordpool.txt	FOG	9	0	6	[0, 0, 0]	n/a	0	1	0	n/a	n/a	0.0	0	0	0	FR3	1	R1163T
1588.287	0.0	734538	STIM_ON	n/a	n/a	FOG	9	0	6	[0, 0, 0]	n/a	1	1	500	LC8	LC9	500.0	10	5	300	FR3	1	R1163T
1588.382	0.305	734633	WORD_OFF	n/a	n/a	FOG	9	0	6	[0, 0, 0]	n/a	1	1	500	LC8	LC9	500.0	10	5	300	FR3	1	R1163T
1588.687	0.645	734938	STIM_OFF	n/a	n/a	n/a	9	0	6	[0, 0, 0]	n/a	0	1	500	LC8	LC9	500.0	10	5	300	FR3	1	R1163T
1589.332	1.6	735583	WORD	n/a	wordpools/wordpool.txt	SHARK	10	0	6	[0, 0, 0]	n/a	0	1	0	n/a	n/a	0.0	0	0	0	FR3	1	R1163T
1590.857	0.0	737108	STIM_ON	n/a	n/a	SHARK	10	0	6	[0, 0, 0]	n/a	1	1	500	LC8	LC9	500.0	10	5	300	FR3	1	R1163T
1590.95	0.307	737201	WORD_OFF	n/a	n/a	SHARK	10	0	6	[0, 0, 0]	n/a	1	1	500	LC8	LC9	500.0	10	5	300	FR3	1	R1163T
1591.257	0.626	737508	STIM_OFF	n/a	n/a	n/a	10	0	6	[0, 0, 0]	n/a	0	1	500	LC8	LC9	500.0	10	5	300	FR3	1	R1163T
1591.883	1.6	738134	WORD	n/a	wordpools/wordpool.txt	PIE	11	1	6	[0, 0, 0]	n/a	0	1	0	n/a	n/a	0.0	0	0	0	FR3	1	R1163T
1593.5	0.784	739751	WORD_OFF	n/a	n/a	PIE	11	0	6	[0, 0, 0]	n/a	0	1	0	n/a	n/a	0.0	0	0	0	FR3	1	R1163T
1594.284	1.6	740535	WORD	n/a	wordpools/wordpool.txt	SINK	12	0	6	[0, 0, 0]	n/a	0	1	0	n/a	n/a	0.0	0	0	0	FR3	1	R1163T
1595.9	0.0	742151	WORD_OFF	n/a	n/a	SINK	12	0	6	[0, 0, 0]	n/a	0	1	0	n/a	n/a	0.0	0	0	0	FR3	1	R1163T
1595.9	0.001	742151	DISTRACT_START	n/a	n/a	n/a	-999	0	6	[0, 0, 0]	n/a	0	1	0	n/a	n/a	0.0	0	0	0	FR3	1	R1163T
1595.901	0.016	742152	START	n/a	n/a	n/a	-999	0	6	[-999, -999, -999]	n/a	0	1	0	n/a	n/a	0.0	0	0	0	FR3	1	R1163T
1595.917	8.551	742168	PROB	8.523	n/a	n/a	-999	0	6	[3, 1, 3]	5	0	1	0	n/a	n/a	0.0	0	0	0	FR3	1	R1163T
1604.468	20.659	750718	PROB	20.659	n/a	n/a	-999	0	6	[8, 6, 7]	16	0	1	0	n/a	n/a	0.0	0	0	0	FR3	1	R1163T
1625.127	0.013	771376	STOP	n/a	n/a	n/a	-999	0	6	[-999, -999, -999]	n/a	0	1	0	n/a	n/a	0.0	0	0	0	FR3	1	R1163T
1625.14	0.715	771389	DISTRACT_END	n/a	n/a	n/a	-999	0	6	[0, 0, 0]	n/a	0	1	0	n/a	n/a	0.0	0	0	0	FR3	1	R1163T
1625.855	0.5	772104	RETRIEVAL_ORIENT	n/a	n/a	n/a	-999	0	6	[0, 0, 0]	n/a	0	1	0	n/a	n/a	0.0	0	0	0	FR3	1	R1163T
1626.373	4.244	772622	REC_START	n/a	n/a	n/a	-999	0	6	[0, 0, 0]	n/a	0	1	0	n/a	n/a	0.0	0	0	0	FR3	1	R1163T
1630.617	7.59	776866	REC_WORD	4.244	n/a	TEA	1	1	6	[0, 0, 0]	n/a	0	1	0	n/a	n/a	0.0	0	0	0	FR3	1	R1163T
1638.207	18.175	784455	REC_WORD	11.834	n/a	PIE	11	1	6	[0, 0, 0]	n/a	0	1	0	n/a	n/a	0.0	0	0	0	FR3	1	R1163T
1656.382	5.798	802629	REC_END	n/a	n/a	n/a	-999	0	6	[0, 0, 0]	n/a	0	1	0	n/a	n/a	0.0	0	0	0	FR3	1	R1163T
1662.18	0.5	808427	TRIAL	n/a	n/a	n/a	-999	0	7	[0, 0, 0]	n/a	0	1	0	n/a	n/a	0.0	0	0	0	FR3	1	R1163T
1662.68	10.0	808927	COUNTDOWN_START	n/a	n/a	n/a	-999	0	7	[0, 0, 0]	n/a	0	1	0	n/a	n/a	0.0	0	0	0	FR3	1	R1163T
1673.108	0.007	819354	COUNTDOWN_END	n/a	n/a	n/a	-999	0	7	[0, 0, 0]	n/a	0	1	0	n/a	n/a	0.0	0	0	0	FR3	1	R1163T
1673.115	1.6	819361	ORIENT	n/a	n/a	n/a	-999	0	7	[0, 0, 0]	n/a	0	1	0	n/a	n/a	0.0	0	0	0	FR3	1	R1163T
1674.731	2.034	820977	ORIENT_OFF	n/a	n/a	n/a	-999	0	7	[0, 0, 0]	n/a	0	1	0	n/a	n/a	0.0	0	0	0	FR3	1	R1163T
1676.765	1.6	823011	WORD	n/a	wordpools/wordpool.txt	SHIP	1	0	7	[0, 0, 0]	n/a	0	1	0	n/a	n/a	0.0	0	0	0	FR3	1	R1163T
1678.382	0.901	824628	WORD_OFF	n/a	n/a	SHIP	1	0	7	[0, 0, 0]	n/a	0	1	0	n/a	n/a	0.0	0	0	0	FR3	1	R1163T
1679.283	1.6	825529	WORD	n/a	wordpools/wordpool.txt	NEST	2	0	7	[0, 0, 0]	n/a	0	1	0	n/a	n/a	0.0	0	0	0	FR3	1	R1163T
1680.804	0.0	827050	STIM_ON	n/a	n/a	NEST	2	0	7	[0, 0, 0]	n/a	1	1	500	LC8	LC9	500.0	10	5	300	FR3	1	R1163T
1680.899	0.305	827145	WORD_OFF	n/a	n/a	NEST	2	0	7	[0, 0, 0]	n/a	1	1	500	LC8	LC9	500.0	10	5	300	FR3	1	R1163T
1681.204	0.595	827450	STIM_OFF	n/a	n/a	n/a	2	0	7	[0, 0, 0]	n/a	0	1	500	LC8	LC9	500.0	10	5	300	FR3	1	R1163T
1681.799	1.6	828045	WORD	n/a	wordpools/wordpool.txt	BRANCH	3	0	7	[0, 0, 0]	n/a	0	1	0	n/a	n/a	0.0	0	0	0	FR3	1	R1163T
1683.327	0.0	829573	STIM_ON	n/a	n/a	BRANCH	3	0	7	[0, 0, 0]	n/a	1	1	500	LC8	LC9	500.0	10	5	300	FR3	1	R1163T
1683.416	0.311	829662	WORD_OFF	n/a	n/a	BRANCH	3	0	7	[0, 0, 0]	n/a	1	1	500	LC8	LC9	500.0	10	5	300	FR3	1	R1163T
1683.727	0.656	829973	STIM_OFF	n/a	n/a	n/a	3	0	7	[0, 0, 0]	n/a	0	1	500	LC8	LC9	500.0	10	5	300	FR3	1	R1163T
1684.383	1.6	830629	WORD	n/a	wordpools/wordpool.txt	STRING	4	0	7	[0, 0, 0]	n/a	0	1	0	n/a	n/a	0.0	0	0	0	FR3	1	R1163T
1686.001	0.832	832247	WORD_OFF	n/a	n/a	STRING	4	0	7	[0, 0, 0]	n/a	0	1	0	n/a	n/a	0.0	0	0	0	FR3	1	R1163T
1686.833	1.6	833079	WORD	n/a	wordpools/wordpool.txt	EAR	5	0	7	[0, 0, 0]	n/a	0	1	0	n/a	n/a	0.0	0	0	0	FR3	1	R1163T
1688.363	0.0	834608	STIM_ON	n/a	n/a	EAR	5	0	7	[0, 0, 0]	n/a	1	1	500	LC8	LC9	500.0	10	5	300	FR3	1	R1163T
1688.45	0.313	834695	WORD_OFF	n/a	n/a	EAR	5	0	7	[0, 0, 0]	n/a	1	1	500	LC8	LC9	500.0	10	5	300	FR3	1	R1163T
1688.763	0.654	835008	STIM_OFF	n/a	n/a	n/a	5	0	7	[0, 0, 0]	n/a	0	1	500	LC8	LC9	500.0	10	5	300	FR3	1	R1163T
1689.417	1.6	835662	WORD	n/a	wordpools/wordpool.txt	CAPE	6	1	7	[0, 0, 0]	n/a	0	1	0	n/a	n/a	0.0	0	0	0	FR3	1	R1163T
1691.035	0.766	837280	WORD_OFF	n/a	n/a	CAPE	6	0	7	[0, 0, 0]	n/a	0	1	0	n/a	n/a	0.0	0	0	0	FR3	1	R1163T
1691.801	1.6	838046	WORD	n/a	wordpools/wordpool.txt	CAR	7	0	7	[0, 0, 0]	n/a	0	1	0	n/a	n/a	0.0	0	0	0	FR3	1	R1163T
1693.327	0.0	839572	STIM_ON	n/a	n/a	CAR	7	0	7	[0, 0, 0]	n/a	1	1	500	LC8	LC9	500.0	10	5	300	FR3	1	R1163T
1693.418	0.309	839663	WORD_OFF	n/a	n/a	CAR	7	0	7	[0, 0, 0]	n/a	1	1	500	LC8	LC9	500.0	10	5	300	FR3	1	R1163T
1693.727	0.525	839972	STIM_OFF	n/a	n/a	n/a	7	0	7	[0, 0, 0]	n/a	0	1	500	LC8	LC9	500.0	10	5	300	FR3	1	R1163T
1694.252	1.6	840497	WORD	n/a	wordpools/wordpool.txt	WOLF	8	0	7	[0, 0, 0]	n/a	0	1	0	n/a	n/a	0.0	0	0	0	FR3	1	R1163T
1695.787	0.0	842032	STIM_ON	n/a	n/a	WOLF	8	0	7	[0, 0, 0]	n/a	1	1	500	LC8	LC9	500.0	10	5	300	FR3	1	R1163T
1695.868	0.319	842113	WORD_OFF	n/a	n/a	WOLF	8	0	7	[0, 0, 0]	n/a	1	1	500	LC8	LC9	500.0	10	5	300	FR3	1	R1163T
1696.187	0.615	842432	STIM_OFF	n/a	n/a	n/a	8	0	7	[0, 0, 0]	n/a	0	1	500	LC8	LC9	500.0	10	5	300	FR3	1	R1163T
1696.802	1.6	843047	WORD	n/a	wordpools/wordpool.txt	JEEP	9	0	7	[0, 0, 0]	n/a	0	1	0	n/a	n/a	0.0	0	0	0	FR3	1	R1163T
1698.338	0.0	844583	STIM_ON	n/a	n/a	JEEP	9	0	7	[0, 0, 0]	n/a	1	1	500	LC8	LC9	500.0	10	5	300	FR3	1	R1163T
1698.419	0.319	844664	WORD_OFF	n/a	n/a	JEEP	9	0	7	[0, 0, 0]	n/a	1	1	500	LC8	LC9	500.0	10	5	300	FR3	1	R1163T
1698.738	0.582	844983	STIM_OFF	n/a	n/a	n/a	9	0	7	[0, 0, 0]	n/a	0	1	500	LC8	LC9	500.0	10	5	300	FR3	1	R1163T
1699.32	1.6	845565	WORD	n/a	wordpools/wordpool.txt	MOLE	10	0	7	[0, 0, 0]	n/a	0	1	0	n/a	n/a	0.0	0	0	0	FR3	1	R1163T
1700.846	0.0	847091	STIM_ON	n/a	n/a	MOLE	10	0	7	[0, 0, 0]	n/a	1	1	500	LC8	LC9	500.0	10	5	300	FR3	1	R1163T
1700.936	0.31	847181	WORD_OFF	n/a	n/a	MOLE	10	0	7	[0, 0, 0]	n/a	1	1	500	LC8	LC9	500.0	10	5	300	FR3	1	R1163T
1701.246	0.623	847491	STIM_OFF	n/a	n/a	n/a	10	0	7	[0, 0, 0]	n/a	0	1	500	LC8	LC9	500.0	10	5	300	FR3	1	R1163T
1701.869	1.6	848114	WORD	n/a	wordpools/wordpool.txt	BIRD	11	0	7	[0, 0, 0]	n/a	0	1	0	n/a	n/a	0.0	0	0	0	FR3	1	R1163T
1703.486	1.0	849731	WORD_OFF	n/a	n/a	BIRD	11	0	7	[0, 0, 0]	n/a	0	1	0	n/a	n/a	0.0	0	0	0	FR3	1	R1163T
1704.486	1.6	850731	WORD	n/a	wordpools/wordpool.txt	BLUSH	12	0	7	[0, 0, 0]	n/a	0	1	0	n/a	n/a	0.0	0	0	0	FR3	1	R1163T
1706.022	0.0	852266	STIM_ON	n/a	n/a	BLUSH	12	0	7	[0, 0, 0]	n/a	1	1	500	LC8	LC9	500.0	10	5	300	FR3	1	R1163T
1706.104	0.0	852348	WORD_OFF	n/a	n/a	BLUSH	12	0	7	[0, 0, 0]	n/a	1	1	500	LC8	LC9	500.0	10	5	300	FR3	1	R1163T
1706.104	0.001	852348	DISTRACT_START	n/a	n/a	n/a	-999	0	7	[0, 0, 0]	n/a	1	1	500	LC8	LC9	500.0	10	5	300	FR3	1	R1163T
1706.105	0.016	852349	START	n/a	n/a	n/a	-999	0	7	[-999, -999, -999]	n/a	0	1	0	n/a	n/a	0.0	0	0	0	FR3	1	R1163T
1706.121	0.301	852365	PROB	11.08	n/a	n/a	-999	0	7	[4, 6, 3]	15	0	1	0	n/a	n/a	0.0	0	0	0	FR3	1	R1163T
1706.422	10.818	852666	STIM_OFF	n/a	n/a	n/a	-999	0	7	[0, 0, 0]	n/a	0	1	500	LC8	LC9	500.0	10	5	300	FR3	1	R1163T
1717.24	12.72	863484	PROB	12.72	n/a	n/a	-999	0	7	[8, 4, 9]	21	0	1	0	n/a	n/a	0.0	0	0	0	FR3	1	R1163T
1729.96	0.015	876203	STOP	n/a	n/a	n/a	-999	0	7	[-999, -999, -999]	n/a	0	1	0	n/a	n/a	0.0	0	0	0	FR3	1	R1163T
1729.975	0.533	876218	DISTRACT_END	n/a	n/a	n/a	-999	0	7	[0, 0, 0]	n/a	0	1	0	n/a	n/a	0.0	0	0	0	FR3	1	R1163T
1730.508	0.5	876751	RETRIEVAL_ORIENT	n/a	n/a	n/a	-999	0	7	[0, 0, 0]	n/a	0	1	0	n/a	n/a	0.0	0	0	0	FR3	1	R1163T
1731.027	2.278	877270	REC_START	n/a	n/a	n/a	-999	0	7	[0, 0, 0]	n/a	0	1	0	n/a	n/a	0.0	0	0	0	FR3	1	R1163T
1733.305	27.732	879548	REC_WORD	2.278	n/a	CAPE	6	1	7	[0, 0, 0]	n/a	0	1	0	n/a	n/a	0.0	0	0	0	FR3	1	R1163T
1761.037	6.711	907278	REC_END	n/a	n/a	n/a	-999	0	7	[0, 0, 0]	n/a	0	1	0	n/a	n/a	0.0	0	0	0	FR3	1	R1163T
1767.748	0.5	913989	TRIAL	n/a	n/a	n/a	-999	0	8	[0, 0, 0]	n/a	0	0	0	n/a	n/a	0.0	0	0	0	FR3	1	R1163T
1768.248	10.0	914489	COUNTDOWN_START	n/a	n/a	n/a	-999	0	8	[0, 0, 0]	n/a	0	0	0	n/a	n/a	0.0	0	0	0	FR3	1	R1163T
1778.676	0.007	924916	COUNTDOWN_END	n/a	n/a	n/a	-999	0	8	[0, 0, 0]	n/a	0	0	0	n/a	n/a	0.0	0	0	0	FR3	1	R1163T
1778.683	1.6	924923	ORIENT	n/a	n/a	n/a	-999	0	8	[0, 0, 0]	n/a	0	0	0	n/a	n/a	0.0	0	0	0	FR3	1	R1163T
1780.301	2.05	926541	ORIENT_OFF	n/a	n/a	n/a	-999	0	8	[0, 0, 0]	n/a	0	0	0	n/a	n/a	0.0	0	0	0	FR3	1	R1163T
1782.351	1.6	928591	WORD	n/a	wordpools/wordpool.txt	SHOE	1	0	8	[0, 0, 0]	n/a	0	0	0	n/a	n/a	0.0	0	0	0	FR3	1	R1163T
1783.969	0.983	930209	WORD_OFF	n/a	n/a	SHOE	1	0	8	[0, 0, 0]	n/a	0	0	0	n/a	n/a	0.0	0	0	0	FR3	1	R1163T
1784.952	1.6	931192	WORD	n/a	wordpools/wordpool.txt	SPOON	2	0	8	[0, 0, 0]	n/a	0	0	0	n/a	n/a	0.0	0	0	0	FR3	1	R1163T
1786.568	0.9	932808	WORD_OFF	n/a	n/a	SPOON	2	0	8	[0, 0, 0]	n/a	0	0	0	n/a	n/a	0.0	0	0	0	FR3	1	R1163T
1787.468	1.6	933708	WORD	n/a	wordpools/wordpool.txt	CHAIR	3	0	8	[0, 0, 0]	n/a	0	0	0	n/a	n/a	0.0	0	0	0	FR3	1	R1163T
1789.069	0.8	935309	WORD_OFF	n/a	n/a	CHAIR	3	0	8	[0, 0, 0]	n/a	0	0	0	n/a	n/a	0.0	0	0	0	FR3	1	R1163T
1789.869	1.6	936108	WORD	n/a	wordpools/wordpool.txt	CANE	4	0	8	[0, 0, 0]	n/a	0	0	0	n/a	n/a	0.0	0	0	0	FR3	1	R1163T
1791.486	0.983	937725	WORD_OFF	n/a	n/a	CANE	4	0	8	[0, 0, 0]	n/a	0	0	0	n/a	n/a	0.0	0	0	0	FR3	1	R1163T
1792.469	1.6	938708	WORD	n/a	wordpools/wordpool.txt	HAT	5	0	8	[0, 0, 0]	n/a	0	0	0	n/a	n/a	0.0	0	0	0	FR3	1	R1163T
1794.087	0.833	940326	WORD_OFF	n/a	n/a	HAT	5	0	8	[0, 0, 0]	n/a	0	0	0	n/a	n/a	0.0	0	0	0	FR3	1	R1163T
1794.92	1.6	941159	WORD	n/a	wordpools/wordpool.txt	BANK	6	0	8	[0, 0, 0]	n/a	0	0	0	n/a	n/a	0.0	0	0	0	FR3	1	R1163T
1796.537	0.8	942776	WORD_OFF	n/a	n/a	BANK	6	0	8	[0, 0, 0]	n/a	0	0	0	n/a	n/a	0.0	0	0	0	FR3	1	R1163T
1797.337	1.6	943576	WORD	n/a	wordpools/wordpool.txt	SLEEVE	7	0	8	[0, 0, 0]	n/a	0	0	0	n/a	n/a	0.0	0	0	0	FR3	1	R1163T
1798.955	0.799	945194	WORD_OFF	n/a	n/a	SLEEVE	7	0	8	[0, 0, 0]	n/a	0	0	0	n/a	n/a	0.0	0	0	0	FR3	1	R1163T
1799.754	1.6	945993	WORD	n/a	wordpools/wordpool.txt	CASH	8	0	8	[0, 0, 0]	n/a	0	0	0	n/a	n/a	0.0	0	0	0	FR3	1	R1163T
1801.371	0.784	947610	WORD_OFF	n/a	n/a	CASH	8	0	8	[0, 0, 0]	n/a	0	0	0	n/a	n/a	0.0	0	0	0	FR3	1	R1163T
1802.155	1.6	948394	WORD	n/a	wordpools/wordpool.txt	SUIT	9	0	8	[0, 0, 0]	n/a	0	0	0	n/a	n/a	0.0	0	0	0	FR3	1	R1163T
1803.771	0.917	950010	WORD_OFF	n/a	n/a	SUIT	9	0	8	[0, 0, 0]	n/a	0	0	0	n/a	n/a	0.0	0	0	0	FR3	1	R1163T
1804.688	1.6	950927	WORD	n/a	wordpools/wordpool.txt	APE	10	0	8	[0, 0, 0]	n/a	0	0	0	n/a	n/a	0.0	0	0	0	FR3	1	R1163T
1806.306	0.85	952545	WORD_OFF	n/a	n/a	APE	10	0	8	[0, 0, 0]	n/a	0	0	0	n/a	n/a	0.0	0	0	0	FR3	1	R1163T
1807.156	1.6	953394	WORD	n/a	wordpools/wordpool.txt	BOOT	11	0	8	[0, 0, 0]	n/a	0	0	0	n/a	n/a	0.0	0	0	0	FR3	1	R1163T
1808.772	0.85	955010	WORD_OFF	n/a	n/a	BOOT	11	0	8	[0, 0, 0]	n/a	0	0	0	n/a	n/a	0.0	0	0	0	FR3	1	R1163T
1809.622	1.6	955860	WORD	n/a	wordpools/wordpool.txt	FENCE	12	0	8	[0, 0, 0]	n/a	0	0	0	n/a	n/a	0.0	0	0	0	FR3	1	R1163T
1811.24	0.0	957478	DISTRACT_START	n/a	n/a	n/a	-999	0	8	[0, 0, 0]	n/a	0	0	0	n/a	n/a	0.0	0	0	0	FR3	1	R1163T
1811.24	0.001	957478	WORD_OFF	n/a	n/a	FENCE	12	0	8	[0, 0, 0]	n/a	0	0	0	n/a	n/a	0.0	0	0	0	FR3	1	R1163T
1811.241	0.016	957479	START	n/a	n/a	n/a	-999	0	8	[-999, -999, -999]	n/a	0	0	0	n/a	n/a	0.0	0	0	0	FR3	1	R1163T
1811.257	8.35	957495	PROB	8.319	n/a	n/a	-999	0	8	[3, 2, 3]	6	0	0	0	n/a	n/a	0.0	0	0	0	FR3	1	R1163T
1819.607	12.264	965845	PROB	12.264	n/a	n/a	-999	0	8	[1, 8, 9]	18	0	0	0	n/a	n/a	0.0	0	0	0	FR3	1	R1163T
1831.871	0.022	978108	STOP	n/a	n/a	n/a	-999	0	8	[-999, -999, -999]	n/a	0	0	0	n/a	n/a	0.0	0	0	0	FR3	1	R1163T
1831.893	0.517	978130	DISTRACT_END	n/a	n/a	n/a	-999	0	8	[0, 0, 0]	n/a	0	0	0	n/a	n/a	0.0	0	0	0	FR3	1	R1163T
1832.41	0.5	978647	RETRIEVAL_ORIENT	n/a	n/a	n/a	-999	0	8	[0, 0, 0]	n/a	0	0	0	n/a	n/a	0.0	0	0	0	FR3	1	R1163T
1832.927	30.0	979164	REC_START	n/a	n/a	n/a	-999	0	8	[0, 0, 0]	n/a	0	0	0	n/a	n/a	0.0	0	0	0	FR3	1	R1163T
1862.927	0.011	1009162	REC_WORD_VV	30.0	n/a	<>	-999	0	8	[0, 0, 0]	n/a	0	0	0	n/a	n/a	0.0	0	0	0	FR3	1	R1163T
1862.938	6.196	1009173	REC_END	n/a	n/a	n/a	-999	0	8	[0, 0, 0]	n/a	0	0	0	n/a	n/a	0.0	0	0	0	FR3	1	R1163T
1869.134	0.5	1015369	TRIAL	n/a	n/a	n/a	-999	0	9	[0, 0, 0]	n/a	0	0	0	n/a	n/a	0.0	0	0	0	FR3	1	R1163T
1869.634	10.0	1015869	COUNTDOWN_START	n/a	n/a	n/a	-999	0	9	[0, 0, 0]	n/a	0	0	0	n/a	n/a	0.0	0	0	0	FR3	1	R1163T
1880.062	0.007	1026296	COUNTDOWN_END	n/a	n/a	n/a	-999	0	9	[0, 0, 0]	n/a	0	0	0	n/a	n/a	0.0	0	0	0	FR3	1	R1163T
1880.069	1.6	1026303	ORIENT	n/a	n/a	n/a	-999	0	9	[0, 0, 0]	n/a	0	0	0	n/a	n/a	0.0	0	0	0	FR3	1	R1163T
1881.685	2.034	1027919	ORIENT_OFF	n/a	n/a	n/a	-999	0	9	[0, 0, 0]	n/a	0	0	0	n/a	n/a	0.0	0	0	0	FR3	1	R1163T
1883.719	1.6	1029953	WORD	n/a	wordpools/wordpool.txt	PLATE	1	0	9	[0, 0, 0]	n/a	0	0	0	n/a	n/a	0.0	0	0	0	FR3	1	R1163T
1885.32	0.901	1031554	WORD_OFF	n/a	n/a	PLATE	1	0	9	[0, 0, 0]	n/a	0	0	0	n/a	n/a	0.0	0	0	0	FR3	1	R1163T
1886.221	1.6	1032455	WORD	n/a	wordpools/wordpool.txt	DUCK	2	0	9	[0, 0, 0]	n/a	0	0	0	n/a	n/a	0.0	0	0	0	FR3	1	R1163T
1887.837	0.8	1034071	WORD_OFF	n/a	n/a	DUCK	2	0	9	[0, 0, 0]	n/a	0	0	0	n/a	n/a	0.0	0	0	0	FR3	1	R1163T
1888.637	1.6	1034871	WORD	n/a	wordpools/wordpool.txt	TANK	3	0	9	[0, 0, 0]	n/a	0	0	0	n/a	n/a	0.0	0	0	0	FR3	1	R1163T
1890.255	0.9	1036489	WORD_OFF	n/a	n/a	TANK	3	0	9	[0, 0, 0]	n/a	0	0	0	n/a	n/a	0.0	0	0	0	FR3	1	R1163T
1891.155	1.6	1037389	WORD	n/a	wordpools/wordpool.txt	PASTE	4	0	9	[0, 0, 0]	n/a	0	0	0	n/a	n/a	0.0	0	0	0	FR3	1	R1163T
1892.771	1.0	1039004	WORD_OFF	n/a	n/a	PASTE	4	0	9	[0, 0, 0]	n/a	0	0	0	n/a	n/a	0.0	0	0	0	FR3	1	R1163T
1893.771	1.6	1040004	WORD	n/a	wordpools/wordpool.txt	CART	5	0	9	[0, 0, 0]	n/a	0	0	0	n/a	n/a	0.0	0	0	0	FR3	1	R1163T
1895.388	0.95	1041621	WORD_OFF	n/a	n/a	CART	5	0	9	[0, 0, 0]	n/a	0	0	0	n/a	n/a	0.0	0	0	0	FR3	1	R1163T
1896.338	1.6	1042571	WORD	n/a	wordpools/wordpool.txt	DOG	6	0	9	[0, 0, 0]	n/a	0	0	0	n/a	n/a	0.0	0	0	0	FR3	1	R1163T
1897.956	1.0	1044189	WORD_OFF	n/a	n/a	DOG	6	0	9	[0, 0, 0]	n/a	0	0	0	n/a	n/a	0.0	0	0	0	FR3	1	R1163T
1898.956	1.6	1045189	WORD	n/a	wordpools/wordpool.txt	HOOK	7	0	9	[0, 0, 0]	n/a	0	0	0	n/a	n/a	0.0	0	0	0	FR3	1	R1163T
1900.572	0.8	1046805	WORD_OFF	n/a	n/a	HOOK	7	0	9	[0, 0, 0]	n/a	0	0	0	n/a	n/a	0.0	0	0	0	FR3	1	R1163T
1901.372	1.6	1047605	WORD	n/a	wordpools/wordpool.txt	ARK	8	0	9	[0, 0, 0]	n/a	0	0	0	n/a	n/a	0.0	0	0	0	FR3	1	R1163T
1902.99	0.849	1049223	WORD_OFF	n/a	n/a	ARK	8	0	9	[0, 0, 0]	n/a	0	0	0	n/a	n/a	0.0	0	0	0	FR3	1	R1163T
1903.839	1.6	1050072	WORD	n/a	wordpools/wordpool.txt	BED	9	0	9	[0, 0, 0]	n/a	0	0	0	n/a	n/a	0.0	0	0	0	FR3	1	R1163T
1905.456	0.984	1051689	WORD_OFF	n/a	n/a	BED	9	0	9	[0, 0, 0]	n/a	0	0	0	n/a	n/a	0.0	0	0	0	FR3	1	R1163T
1906.44	1.6	1052673	WORD	n/a	wordpools/wordpool.txt	BAT	10	0	9	[0, 0, 0]	n/a	0	0	0	n/a	n/a	0.0	0	0	0	FR3	1	R1163T
1908.041	0.95	1054274	WORD_OFF	n/a	n/a	BAT	10	0	9	[0, 0, 0]	n/a	0	0	0	n/a	n/a	0.0	0	0	0	FR3	1	R1163T
1908.991	1.6	1055223	WORD	n/a	wordpools/wordpool.txt	JAIL	11	0	9	[0, 0, 0]	n/a	0	0	0	n/a	n/a	0.0	0	0	0	FR3	1	R1163T
1910.607	0.917	1056839	WORD_OFF	n/a	n/a	JAIL	11	0	9	[0, 0, 0]	n/a	0	0	0	n/a	n/a	0.0	0	0	0	FR3	1	R1163T
1911.524	1.6	1057756	WORD	n/a	wordpools/wordpool.txt	SEED	12	0	9	[0, 0, 0]	n/a	0	0	0	n/a	n/a	0.0	0	0	0	FR3	1	R1163T
1913.125	0.0	1059357	WORD_OFF	n/a	n/a	SEED	12	0	9	[0, 0, 0]	n/a	0	0	0	n/a	n/a	0.0	0	0	0	FR3	1	R1163T
1913.125	0.001	1059357	DISTRACT_START	n/a	n/a	n/a	-999	0	9	[0, 0, 0]	n/a	0	0	0	n/a	n/a	0.0	0	0	0	FR3	1	R1163T
1913.126	0.016	1059358	START	n/a	n/a	n/a	-999	0	9	[-999, -999, -999]	n/a	0	0	0	n/a	n/a	0.0	0	0	0	FR3	1	R1163T
1913.142	9.418	1059374	PROB	9.385	n/a	n/a	-999	0	9	[2, 4, 7]	14	0	0	0	n/a	n/a	0.0	0	0	0	FR3	1	R1163T
1922.56	7.435	1068792	PROB	7.408	n/a	n/a	-999	0	9	[3, 8, 7]	18	0	0	0	n/a	n/a	0.0	0	0	0	FR3	1	R1163T
1929.995	13.325	1076226	PROB	13.325	n/a	n/a	-999	0	9	[2, 1, 7]	19	0	0	0	n/a	n/a	0.0	0	0	0	FR3	1	R1163T
1943.32	0.01	1089550	STOP	n/a	n/a	n/a	-999	0	9	[-999, -999, -999]	n/a	0	0	0	n/a	n/a	0.0	0	0	0	FR3	1	R1163T
1943.33	0.517	1089560	DISTRACT_END	n/a	n/a	n/a	-999	0	9	[0, 0, 0]	n/a	0	0	0	n/a	n/a	0.0	0	0	0	FR3	1	R1163T
1943.847	0.5	1090077	RETRIEVAL_ORIENT	n/a	n/a	n/a	-999	0	9	[0, 0, 0]	n/a	0	0	0	n/a	n/a	0.0	0	0	0	FR3	1	R1163T
1944.364	30.0	1090594	REC_START	n/a	n/a	n/a	-999	0	9	[0, 0, 0]	n/a	0	0	0	n/a	n/a	0.0	0	0	0	FR3	1	R1163T
1974.364	0.01	1120593	REC_WORD_VV	30.0	n/a	<>	-999	0	9	[0, 0, 0]	n/a	0	0	0	n/a	n/a	0.0	0	0	0	FR3	1	R1163T
1974.374	12.748	1120603	REC_END	n/a	n/a	n/a	-999	0	9	[0, 0, 0]	n/a	0	0	0	n/a	n/a	0.0	0	0	0	FR3	1	R1163T
1987.122	0.5	1133350	TRIAL	n/a	n/a	n/a	-999	0	10	[0, 0, 0]	n/a	0	1	0	n/a	n/a	0.0	0	0	0	FR3	1	R1163T
1987.622	10.0	1133850	COUNTDOWN_START	n/a	n/a	n/a	-999	0	10	[0, 0, 0]	n/a	0	1	0	n/a	n/a	0.0	0	0	0	FR3	1	R1163T
1998.05	0.008	1144277	COUNTDOWN_END	n/a	n/a	n/a	-999	0	10	[0, 0, 0]	n/a	0	1	0	n/a	n/a	0.0	0	0	0	FR3	1	R1163T
1998.058	1.6	1144285	ORIENT	n/a	n/a	n/a	-999	0	10	[0, 0, 0]	n/a	0	1	0	n/a	n/a	0.0	0	0	0	FR3	1	R1163T
1999.674	2.017	1145901	ORIENT_OFF	n/a	n/a	n/a	-999	0	10	[0, 0, 0]	n/a	0	1	0	n/a	n/a	0.0	0	0	0	FR3	1	R1163T
2001.691	1.6	1147918	WORD	n/a	wordpools/wordpool.txt	OAR	1	0	10	[0, 0, 0]	n/a	0	1	0	n/a	n/a	0.0	0	0	0	FR3	1	R1163T
2003.309	0.783	1149536	WORD_OFF	n/a	n/a	OAR	1	0	10	[0, 0, 0]	n/a	0	1	0	n/a	n/a	0.0	0	0	0	FR3	1	R1163T
2004.092	1.6	1150319	WORD	n/a	wordpools/wordpool.txt	BENCH	2	0	10	[0, 0, 0]	n/a	0	1	0	n/a	n/a	0.0	0	0	0	FR3	1	R1163T
2005.708	0.967	1151935	WORD_OFF	n/a	n/a	BENCH	2	0	10	[0, 0, 0]	n/a	0	1	0	n/a	n/a	0.0	0	0	0	FR3	1	R1163T
2006.675	1.6	1152902	WORD	n/a	wordpools/wordpool.txt	HOSE	3	0	10	[0, 0, 0]	n/a	0	1	0	n/a	n/a	0.0	0	0	0	FR3	1	R1163T
2008.216	0.0	1154443	STIM_ON	n/a	n/a	HOSE	3	0	10	[0, 0, 0]	n/a	1	1	500	LC8	LC9	500.0	10	5	300	FR3	1	R1163T
2008.293	0.324	1154520	WORD_OFF	n/a	n/a	HOSE	3	0	10	[0, 0, 0]	n/a	1	1	500	LC8	LC9	500.0	10	5	300	FR3	1	R1163T
2008.617	0.643	1154844	STIM_OFF	n/a	n/a	n/a	3	0	10	[0, 0, 0]	n/a	0	1	500	LC8	LC9	500.0	10	5	300	FR3	1	R1163T
2009.26	1.6	1155487	WORD	n/a	wordpools/wordpool.txt	SCHOOL	4	0	10	[0, 0, 0]	n/a	0	1	0	n/a	n/a	0.0	0	0	0	FR3	1	R1163T
2010.876	1.0	1157102	WORD_OFF	n/a	n/a	SCHOOL	4	0	10	[0, 0, 0]	n/a	0	1	0	n/a	n/a	0.0	0	0	0	FR3	1	R1163T
2011.876	1.6	1158102	WORD	n/a	wordpools/wordpool.txt	SHIRT	5	0	10	[0, 0, 0]	n/a	0	1	0	n/a	n/a	0.0	0	0	0	FR3	1	R1163T
2013.493	0.784	1159719	WORD_OFF	n/a	n/a	SHIRT	5	0	10	[0, 0, 0]	n/a	0	1	0	n/a	n/a	0.0	0	0	0	FR3	1	R1163T
2014.277	1.6	1160503	WORD	n/a	wordpools/wordpool.txt	TEETH	6	0	10	[0, 0, 0]	n/a	0	1	0	n/a	n/a	0.0	0	0	0	FR3	1	R1163T
2015.893	0.934	1162119	WORD_OFF	n/a	n/a	TEETH	6	0	10	[0, 0, 0]	n/a	0	1	0	n/a	n/a	0.0	0	0	0	FR3	1	R1163T
2016.827	1.6	1163053	WORD	n/a	wordpools/wordpool.txt	STEM	7	0	10	[0, 0, 0]	n/a	0	1	0	n/a	n/a	0.0	0	0	0	FR3	1	R1163T
2018.381	0.0	1164607	STIM_ON	n/a	n/a	STEM	7	0	10	[0, 0, 0]	n/a	1	1	500	LC8	LC9	500.0	10	5	300	FR3	1	R1163T
2018.444	0.337	1164670	WORD_OFF	n/a	n/a	STEM	7	0	10	[0, 0, 0]	n/a	1	1	500	LC8	LC9	500.0	10	5	300	FR3	1	R1163T
2018.781	0.514	1165007	STIM_OFF	n/a	n/a	n/a	7	0	10	[0, 0, 0]	n/a	0	1	500	LC8	LC9	500.0	10	5	300	FR3	1	R1163T
2019.295	1.6	1165521	WORD	n/a	wordpools/wordpool.txt	FRUIT	8	0	10	[0, 0, 0]	n/a	0	1	0	n/a	n/a	0.0	0	0	0	FR3	1	R1163T
2020.84	0.0	1167066	STIM_ON	n/a	n/a	FRUIT	8	0	10	[0, 0, 0]	n/a	1	1	500	LC8	LC9	500.0	10	5	300	FR3	1	R1163T
2020.911	0.329	1167137	WORD_OFF	n/a	n/a	FRUIT	8	0	10	[0, 0, 0]	n/a	1	1	500	LC8	LC9	500.0	10	5	300	FR3	1	R1163T
2021.24	0.538	1167466	STIM_OFF	n/a	n/a	n/a	8	0	10	[0, 0, 0]	n/a	0	1	500	LC8	LC9	500.0	10	5	300	FR3	1	R1163T
2021.778	1.6	1168004	WORD	n/a	wordpools/wordpool.txt	CHIN	9	0	10	[0, 0, 0]	n/a	0	1	0	n/a	n/a	0.0	0	0	0	FR3	1	R1163T
2023.332	0.0	1169558	STIM_ON	n/a	n/a	CHIN	9	0	10	[0, 0, 0]	n/a	1	1	500	LC8	LC9	500.0	10	5	300	FR3	1	R1163T
2023.395	0.337	1169621	WORD_OFF	n/a	n/a	CHIN	9	0	10	[0, 0, 0]	n/a	1	1	500	LC8	LC9	500.0	10	5	300	FR3	1	R1163T
2023.732	0.53	1169958	STIM_OFF	n/a	n/a	n/a	9	0	10	[0, 0, 0]	n/a	0	1	500	LC8	LC9	500.0	10	5	300	FR3	1	R1163T
2024.262	1.6	1170488	WORD	n/a	wordpools/wordpool.txt	CLOUD	10	0	10	[0, 0, 0]	n/a	0	1	0	n/a	n/a	0.0	0	0	0	FR3	1	R1163T
2025.813	0.0	1172039	STIM_ON	n/a	n/a	CLOUD	10	0	10	[0, 0, 0]	n/a	1	1	500	LC8	LC9	500.0	10	5	300	FR3	1	R1163T
2025.878	0.336	1172104	WORD_OFF	n/a	n/a	CLOUD	10	0	10	[0, 0, 0]	n/a	1	1	500	LC8	LC9	500.0	10	5	300	FR3	1	R1163T
2026.214	0.481	1172440	STIM_OFF	n/a	n/a	n/a	10	0	10	[0, 0, 0]	n/a	0	1	500	LC8	LC9	500.0	10	5	300	FR3	1	R1163T
2026.695	1.6	1172921	WORD	n/a	wordpools/wordpool.txt	SKI	11	1	10	[0, 0, 0]	n/a	0	1	0	n/a	n/a	0.0	0	0	0	FR3	1	R1163T
2028.296	0.817	1174521	WORD_OFF	n/a	n/a	SKI	11	0	10	[0, 0, 0]	n/a	0	1	0	n/a	n/a	0.0	0	0	0	FR3	1	R1163T
2029.113	1.6	1175338	WORD	n/a	wordpools/wordpool.txt	WEB	12	0	10	[0, 0, 0]	n/a	0	1	0	n/a	n/a	0.0	0	0	0	FR3	1	R1163T
2030.729	0.0	1176954	WORD_OFF	n/a	n/a	WEB	12	0	10	[0, 0, 0]	n/a	0	1	0	n/a	n/a	0.0	0	0	0	FR3	1	R1163T
2030.729	0.001	1176954	DISTRACT_START	n/a	n/a	n/a	-999	0	10	[0, 0, 0]	n/a	0	1	0	n/a	n/a	0.0	0	0	0	FR3	1	R1163T
2030.73	0.016	1176955	START	n/a	n/a	n/a	-999	0	10	[-999, -999, -999]	n/a	0	1	0	n/a	n/a	0.0	0	0	0	FR3	1	R1163T
2030.746	9.035	1176971	PROB	8.998	n/a	n/a	-999	0	10	[5, 2, 3]	51	0	1	0	n/a	n/a	0.0	0	0	0	FR3	1	R1163T
2039.781	8.018	1186006	PROB	7.986	n/a	n/a	-999	0	10	[2, 5, 2]	6	0	1	0	n/a	n/a	0.0	0	0	0	FR3	1	R1163T
2047.799	8.153	1194023	PROB	8.153	n/a	n/a	-999	0	10	[6, 4, 8]	14	0	1	0	n/a	n/a	0.0	0	0	0	FR3	1	R1163T
2055.952	0.016	1202176	STOP	n/a	n/a	n/a	-999	0	10	[-999, -999, -999]	n/a	0	1	0	n/a	n/a	0.0	0	0	0	FR3	1	R1163T
2055.968	0.516	1202192	DISTRACT_END	n/a	n/a	n/a	-999	0	10	[0, 0, 0]	n/a	0	1	0	n/a	n/a	0.0	0	0	0	FR3	1	R1163T
2056.484	0.5	1202708	RETRIEVAL_ORIENT	n/a	n/a	n/a	-999	0	10	[0, 0, 0]	n/a	0	1	0	n/a	n/a	0.0	0	0	0	FR3	1	R1163T
2057.003	2.953	1203227	REC_START	n/a	n/a	n/a	-999	0	10	[0, 0, 0]	n/a	0	1	0	n/a	n/a	0.0	0	0	0	FR3	1	R1163T
2059.956	27.057	1206180	REC_WORD	2.953	n/a	SKI	11	1	10	[0, 0, 0]	n/a	0	1	0	n/a	n/a	0.0	0	0	0	FR3	1	R1163T
2087.013	6.929	1233235	REC_END	n/a	n/a	n/a	-999	0	10	[0, 0, 0]	n/a	0	1	0	n/a	n/a	0.0	0	0	0	FR3	1	R1163T
2093.942	0.5	1240164	TRIAL	n/a	n/a	n/a	-999	0	11	[0, 0, 0]	n/a	0	0	0	n/a	n/a	0.0	0	0	0	FR3	1	R1163T
2094.442	10.0	1240664	COUNTDOWN_START	n/a	n/a	n/a	-999	0	11	[0, 0, 0]	n/a	0	0	0	n/a	n/a	0.0	0	0	0	FR3	1	R1163T
2104.87	0.006	1251091	COUNTDOWN_END	n/a	n/a	n/a	-999	0	11	[0, 0, 0]	n/a	0	0	0	n/a	n/a	0.0	0	0	0	FR3	1	R1163T
2104.876	1.6	1251097	ORIENT	n/a	n/a	n/a	-999	0	11	[0, 0, 0]	n/a	0	0	0	n/a	n/a	0.0	0	0	0	FR3	1	R1163T
2106.493	2.15	1252714	ORIENT_OFF	n/a	n/a	n/a	-999	0	11	[0, 0, 0]	n/a	0	0	0	n/a	n/a	0.0	0	0	0	FR3	1	R1163T
2108.643	1.6	1254864	WORD	n/a	wordpools/wordpool.txt	ZOO	1	1	11	[0, 0, 0]	n/a	0	0	0	n/a	n/a	0.0	0	0	0	FR3	1	R1163T
2110.244	0.768	1256465	WORD_OFF	n/a	n/a	ZOO	1	0	11	[0, 0, 0]	n/a	0	0	0	n/a	n/a	0.0	0	0	0	FR3	1	R1163T
2111.012	1.6	1257233	WORD	n/a	wordpools/wordpool.txt	SKY	2	1	11	[0, 0, 0]	n/a	0	0	0	n/a	n/a	0.0	0	0	0	FR3	1	R1163T
2112.627	1.017	1258847	WORD_OFF	n/a	n/a	SKY	2	0	11	[0, 0, 0]	n/a	0	0	0	n/a	n/a	0.0	0	0	0	FR3	1	R1163T
2113.644	1.6	1259864	WORD	n/a	wordpools/wordpool.txt	SNOW	3	0	11	[0, 0, 0]	n/a	0	0	0	n/a	n/a	0.0	0	0	0	FR3	1	R1163T
2115.262	0.767	1261482	WORD_OFF	n/a	n/a	SNOW	3	0	11	[0, 0, 0]	n/a	0	0	0	n/a	n/a	0.0	0	0	0	FR3	1	R1163T
2116.029	1.6	1262249	WORD	n/a	wordpools/wordpool.txt	FUR	4	0	11	[0, 0, 0]	n/a	0	0	0	n/a	n/a	0.0	0	0	0	FR3	1	R1163T
2117.645	0.95	1263865	WORD_OFF	n/a	n/a	FUR	4	0	11	[0, 0, 0]	n/a	0	0	0	n/a	n/a	0.0	0	0	0	FR3	1	R1163T
2118.595	1.6	1264815	WORD	n/a	wordpools/wordpool.txt	TREE	5	0	11	[0, 0, 0]	n/a	0	0	0	n/a	n/a	0.0	0	0	0	FR3	1	R1163T
2120.196	0.801	1266416	WORD_OFF	n/a	n/a	TREE	5	0	11	[0, 0, 0]	n/a	0	0	0	n/a	n/a	0.0	0	0	0	FR3	1	R1163T
2120.997	1.6	1267217	WORD	n/a	wordpools/wordpool.txt	STOOL	6	0	11	[0, 0, 0]	n/a	0	0	0	n/a	n/a	0.0	0	0	0	FR3	1	R1163T
2122.613	0.883	1268833	WORD_OFF	n/a	n/a	STOOL	6	0	11	[0, 0, 0]	n/a	0	0	0	n/a	n/a	0.0	0	0	0	FR3	1	R1163T
2123.496	1.6	1269716	WORD	n/a	wordpools/wordpool.txt	BUSH	7	0	11	[0, 0, 0]	n/a	0	0	0	n/a	n/a	0.0	0	0	0	FR3	1	R1163T
2125.114	0.9	1271334	WORD_OFF	n/a	n/a	BUSH	7	0	11	[0, 0, 0]	n/a	0	0	0	n/a	n/a	0.0	0	0	0	FR3	1	R1163T
2126.014	1.6	1272234	WORD	n/a	wordpools/wordpool.txt	WALL	8	0	11	[0, 0, 0]	n/a	0	0	0	n/a	n/a	0.0	0	0	0	FR3	1	R1163T
2127.63	0.784	1273850	WORD_OFF	n/a	n/a	WALL	8	0	11	[0, 0, 0]	n/a	0	0	0	n/a	n/a	0.0	0	0	0	FR3	1	R1163T
2128.414	1.6	1274634	WORD	n/a	wordpools/wordpool.txt	ROPE	9	0	11	[0, 0, 0]	n/a	0	0	0	n/a	n/a	0.0	0	0	0	FR3	1	R1163T
2130.032	0.933	1276251	WORD_OFF	n/a	n/a	ROPE	9	0	11	[0, 0, 0]	n/a	0	0	0	n/a	n/a	0.0	0	0	0	FR3	1	R1163T
2130.965	1.6	1277184	WORD	n/a	wordpools/wordpool.txt	SOCK	10	0	11	[0, 0, 0]	n/a	0	0	0	n/a	n/a	0.0	0	0	0	FR3	1	R1163T
2132.581	0.917	1278800	WORD_OFF	n/a	n/a	SOCK	10	0	11	[0, 0, 0]	n/a	0	0	0	n/a	n/a	0.0	0	0	0	FR3	1	R1163T
2133.498	1.6	1279717	WORD	n/a	wordpools/wordpool.txt	ROCK	11	0	11	[0, 0, 0]	n/a	0	0	0	n/a	n/a	0.0	0	0	0	FR3	1	R1163T
2135.116	0.933	1281335	WORD_OFF	n/a	n/a	ROCK	11	0	11	[0, 0, 0]	n/a	0	0	0	n/a	n/a	0.0	0	0	0	FR3	1	R1163T
2136.049	1.6	1282268	WORD	n/a	wordpools/wordpool.txt	TOY	12	0	11	[0, 0, 0]	n/a	0	0	0	n/a	n/a	0.0	0	0	0	FR3	1	R1163T
2137.665	0.0	1283884	WORD_OFF	n/a	n/a	TOY	12	0	11	[0, 0, 0]	n/a	0	0	0	n/a	n/a	0.0	0	0	0	FR3	1	R1163T
2137.665	0.001	1283884	DISTRACT_START	n/a	n/a	n/a	-999	0	11	[0, 0, 0]	n/a	0	0	0	n/a	n/a	0.0	0	0	0	FR3	1	R1163T
2137.666	0.016	1283885	START	n/a	n/a	n/a	-999	0	11	[-999, -999, -999]	n/a	0	0	0	n/a	n/a	0.0	0	0	0	FR3	1	R1163T
2137.682	12.919	1283901	PROB	12.893	n/a	n/a	-999	0	11	[5, 6, 4]	15	0	0	0	n/a	n/a	0.0	0	0	0	FR3	1	R1163T
2150.601	6.968	1296819	PROB	6.935	n/a	n/a	-999	0	11	[1, 9, 5]	15	0	0	0	n/a	n/a	0.0	0	0	0	FR3	1	R1163T
2157.569	6.095	1303787	PROB	6.095	n/a	n/a	-999	0	11	[1, 2, 9]	11	0	0	0	n/a	n/a	0.0	0	0	0	FR3	1	R1163T
2163.664	0.006	1309881	STOP	n/a	n/a	n/a	-999	0	11	[-999, -999, -999]	n/a	0	0	0	n/a	n/a	0.0	0	0	0	FR3	1	R1163T
2163.67	0.651	1309887	DISTRACT_END	n/a	n/a	n/a	-999	0	11	[0, 0, 0]	n/a	0	0	0	n/a	n/a	0.0	0	0	0	FR3	1	R1163T
2164.321	0.5	1310538	RETRIEVAL_ORIENT	n/a	n/a	n/a	-999	0	11	[0, 0, 0]	n/a	0	0	0	n/a	n/a	0.0	0	0	0	FR3	1	R1163T
2164.838	2.054	1311055	REC_START	n/a	n/a	n/a	-999	0	11	[0, 0, 0]	n/a	0	0	0	n/a	n/a	0.0	0	0	0	FR3	1	R1163T
2166.892	15.45	1313109	REC_WORD	2.054	n/a	ZOO	1	1	11	[0, 0, 0]	n/a	0	0	0	n/a	n/a	0.0	0	0	0	FR3	1	R1163T
2182.342	12.508	1328558	REC_WORD	17.504	n/a	SKY	2	1	11	[0, 0, 0]	n/a	0	0	0	n/a	n/a	0.0	0	0	0	FR3	1	R1163T
2194.85	6.111	1341066	REC_END	n/a	n/a	n/a	-999	0	11	[0, 0, 0]	n/a	0	0	0	n/a	n/a	0.0	0	0	0	FR3	1	R1163T
2200.961	0.5	1347176	TRIAL	n/a	n/a	n/a	-999	0	12	[0, 0, 0]	n/a	0	0	0	n/a	n/a	0.0	0	0	0	FR3	1	R1163T
2201.461	10.0	1347676	COUNTDOWN_START	n/a	n/a	n/a	-999	0	12	[0, 0, 0]	n/a	0	0	0	n/a	n/a	0.0	0	0	0	FR3	1	R1163T
2211.889	0.006	1358104	COUNTDOWN_END	n/a	n/a	n/a	-999	0	12	[0, 0, 0]	n/a	0	0	0	n/a	n/a	0.0	0	0	0	FR3	1	R1163T
2211.895	1.6	1358110	ORIENT	n/a	n/a	n/a	-999	0	12	[0, 0, 0]	n/a	0	0	0	n/a	n/a	0.0	0	0	0	FR3	1	R1163T
2213.513	2.3	1359727	ORIENT_OFF	n/a	n/a	n/a	-999	0	12	[0, 0, 0]	n/a	0	0	0	n/a	n/a	0.0	0	0	0	FR3	1	R1163T
2215.813	1.6	1362027	WORD	n/a	wordpools/wordpool.txt	DESK	1	0	12	[0, 0, 0]	n/a	0	0	0	n/a	n/a	0.0	0	0	0	FR3	1	R1163T
2217.43	0.868	1363644	WORD_OFF	n/a	n/a	DESK	1	0	12	[0, 0, 0]	n/a	0	0	0	n/a	n/a	0.0	0	0	0	FR3	1	R1163T
2218.298	1.6	1364512	WORD	n/a	wordpools/wordpool.txt	WOOD	2	0	12	[0, 0, 0]	n/a	0	0	0	n/a	n/a	0.0	0	0	0	FR3	1	R1163T
2219.914	0.983	1366128	WORD_OFF	n/a	n/a	WOOD	2	0	12	[0, 0, 0]	n/a	0	0	0	n/a	n/a	0.0	0	0	0	FR3	1	R1163T
2220.897	1.6	1367111	WORD	n/a	wordpools/wordpool.txt	FAN	3	0	12	[0, 0, 0]	n/a	0	0	0	n/a	n/a	0.0	0	0	0	FR3	1	R1163T
2222.514	0.884	1368728	WORD_OFF	n/a	n/a	FAN	3	0	12	[0, 0, 0]	n/a	0	0	0	n/a	n/a	0.0	0	0	0	FR3	1	R1163T
2223.398	1.6	1369612	WORD	n/a	wordpools/wordpool.txt	VEST	4	0	12	[0, 0, 0]	n/a	0	0	0	n/a	n/a	0.0	0	0	0	FR3	1	R1163T
2225.016	0.95	1371230	WORD_OFF	n/a	n/a	VEST	4	0	12	[0, 0, 0]	n/a	0	0	0	n/a	n/a	0.0	0	0	0	FR3	1	R1163T
2225.966	1.6	1372180	WORD	n/a	wordpools/wordpool.txt	WHALE	5	0	12	[0, 0, 0]	n/a	0	0	0	n/a	n/a	0.0	0	0	0	FR3	1	R1163T
2227.582	0.85	1373796	WORD_OFF	n/a	n/a	WHALE	5	0	12	[0, 0, 0]	n/a	0	0	0	n/a	n/a	0.0	0	0	0	FR3	1	R1163T
2228.432	1.6	1374646	WORD	n/a	wordpools/wordpool.txt	STONE	6	0	12	[0, 0, 0]	n/a	0	0	0	n/a	n/a	0.0	0	0	0	FR3	1	R1163T
2230.05	0.967	1376264	WORD_OFF	n/a	n/a	STONE	6	0	12	[0, 0, 0]	n/a	0	0	0	n/a	n/a	0.0	0	0	0	FR3	1	R1163T
2231.017	1.6	1377230	WORD	n/a	wordpools/wordpool.txt	MAP	7	0	12	[0, 0, 0]	n/a	0	0	0	n/a	n/a	0.0	0	0	0	FR3	1	R1163T
2232.633	0.883	1378846	WORD_OFF	n/a	n/a	MAP	7	0	12	[0, 0, 0]	n/a	0	0	0	n/a	n/a	0.0	0	0	0	FR3	1	R1163T
2233.516	1.6	1379729	WORD	n/a	wordpools/wordpool.txt	ROOF	8	1	12	[0, 0, 0]	n/a	0	0	0	n/a	n/a	0.0	0	0	0	FR3	1	R1163T
2235.134	0.933	1381347	WORD_OFF	n/a	n/a	ROOF	8	0	12	[0, 0, 0]	n/a	0	0	0	n/a	n/a	0.0	0	0	0	FR3	1	R1163T
2236.067	1.6	1382280	WORD	n/a	wordpools/wordpool.txt	CRANE	9	0	12	[0, 0, 0]	n/a	0	0	0	n/a	n/a	0.0	0	0	0	FR3	1	R1163T
2237.684	0.983	1383897	WORD_OFF	n/a	n/a	CRANE	9	0	12	[0, 0, 0]	n/a	0	0	0	n/a	n/a	0.0	0	0	0	FR3	1	R1163T
2238.667	1.6	1384880	WORD	n/a	wordpools/wordpool.txt	STAR	10	0	12	[0, 0, 0]	n/a	0	0	0	n/a	n/a	0.0	0	0	0	FR3	1	R1163T
2240.285	0.967	1386498	WORD_OFF	n/a	n/a	STAR	10	0	12	[0, 0, 0]	n/a	0	0	0	n/a	n/a	0.0	0	0	0	FR3	1	R1163T
2241.252	1.6	1387465	WORD	n/a	wordpools/wordpool.txt	GOAT	11	0	12	[0, 0, 0]	n/a	0	0	0	n/a	n/a	0.0	0	0	0	FR3	1	R1163T
2242.868	1.0	1389081	WORD_OFF	n/a	n/a	GOAT	11	0	12	[0, 0, 0]	n/a	0	0	0	n/a	n/a	0.0	0	0	0	FR3	1	R1163T
2243.868	1.6	1390081	WORD	n/a	wordpools/wordpool.txt	SHEET	12	0	12	[0, 0, 0]	n/a	0	0	0	n/a	n/a	0.0	0	0	0	FR3	1	R1163T
2245.485	0.0	1391698	WORD_OFF	n/a	n/a	SHEET	12	0	12	[0, 0, 0]	n/a	0	0	0	n/a	n/a	0.0	0	0	0	FR3	1	R1163T
2245.485	0.001	1391698	DISTRACT_START	n/a	n/a	n/a	-999	0	12	[0, 0, 0]	n/a	0	0	0	n/a	n/a	0.0	0	0	0	FR3	1	R1163T
2245.486	0.016	1391699	START	n/a	n/a	n/a	-999	0	12	[-999, -999, -999]	n/a	0	0	0	n/a	n/a	0.0	0	0	0	FR3	1	R1163T
2245.502	7.569	1391715	PROB	7.545	n/a	n/a	-999	0	12	[8, 4, 4]	14	0	0	0	n/a	n/a	0.0	0	0	0	FR3	1	R1163T
2253.071	6.018	1399283	PROB	5.985	n/a	n/a	-999	0	12	[3, 7, 4]	14	0	0	0	n/a	n/a	0.0	0	0	0	FR3	1	R1163T
2259.089	10.047	1405301	PROB	10.047	n/a	n/a	-999	0	12	[4, 6, 4]	16	0	0	0	n/a	n/a	0.0	0	0	0	FR3	1	R1163T
2269.136	0.021	1415347	STOP	n/a	n/a	n/a	-999	0	12	[-999, -999, -999]	n/a	0	0	0	n/a	n/a	0.0	0	0	0	FR3	1	R1163T
2269.157	0.633	1415368	DISTRACT_END	n/a	n/a	n/a	-999	0	12	[0, 0, 0]	n/a	0	0	0	n/a	n/a	0.0	0	0	0	FR3	1	R1163T
2269.79	0.5	1416001	RETRIEVAL_ORIENT	n/a	n/a	n/a	-999	0	12	[0, 0, 0]	n/a	0	0	0	n/a	n/a	0.0	0	0	0	FR3	1	R1163T
2270.308	8.762	1416519	REC_START	n/a	n/a	n/a	-999	0	12	[0, 0, 0]	n/a	0	0	0	n/a	n/a	0.0	0	0	0	FR3	1	R1163T
2279.07	21.25	1425281	REC_WORD	8.762	n/a	ROOF	8	1	12	[0, 0, 0]	n/a	0	0	0	n/a	n/a	0.0	0	0	0	FR3	1	R1163T
2300.32	7.961	1446529	REC_END	n/a	n/a	n/a	-999	0	12	[0, 0, 0]	n/a	0	0	0	n/a	n/a	0.0	0	0	0	FR3	1	R1163T
2308.281	0.5	1454490	TRIAL	n/a	n/a	n/a	-999	0	13	[0, 0, 0]	n/a	0	0	0	n/a	n/a	0.0	0	0	0	FR3	1	R1163T
2308.781	10.0	1454990	COUNTDOWN_START	n/a	n/a	n/a	-999	0	13	[0, 0, 0]	n/a	0	0	0	n/a	n/a	0.0	0	0	0	FR3	1	R1163T
2319.209	0.007	1465417	COUNTDOWN_END	n/a	n/a	n/a	-999	0	13	[0, 0, 0]	n/a	0	0	0	n/a	n/a	0.0	0	0	0	FR3	1	R1163T
2319.216	1.6	1465424	ORIENT	n/a	n/a	n/a	-999	0	13	[0, 0, 0]	n/a	0	0	0	n/a	n/a	0.0	0	0	0	FR3	1	R1163T
2320.832	2.202	1467040	ORIENT_OFF	n/a	n/a	n/a	-999	0	13	[0, 0, 0]	n/a	0	0	0	n/a	n/a	0.0	0	0	0	FR3	1	R1163T
2323.034	1.6	1469242	WORD	n/a	wordpools/wordpool.txt	PHONE	1	1	13	[0, 0, 0]	n/a	0	0	0	n/a	n/a	0.0	0	0	0	FR3	1	R1163T
2324.65	0.766	1470858	WORD_OFF	n/a	n/a	PHONE	1	0	13	[0, 0, 0]	n/a	0	0	0	n/a	n/a	0.0	0	0	0	FR3	1	R1163T
2325.416	1.6	1471624	WORD	n/a	wordpools/wordpool.txt	LOCK	2	0	13	[0, 0, 0]	n/a	0	0	0	n/a	n/a	0.0	0	0	0	FR3	1	R1163T
2327.034	0.783	1473242	WORD_OFF	n/a	n/a	LOCK	2	0	13	[0, 0, 0]	n/a	0	0	0	n/a	n/a	0.0	0	0	0	FR3	1	R1163T
2327.817	1.6	1474025	WORD	n/a	wordpools/wordpool.txt	PEACH	3	0	13	[0, 0, 0]	n/a	0	0	0	n/a	n/a	0.0	0	0	0	FR3	1	R1163T
2329.434	0.9	1475642	WORD_OFF	n/a	n/a	PEACH	3	0	13	[0, 0, 0]	n/a	0	0	0	n/a	n/a	0.0	0	0	0	FR3	1	R1163T
2330.334	1.6	1476542	WORD	n/a	wordpools/wordpool.txt	PARK	4	0	13	[0, 0, 0]	n/a	0	0	0	n/a	n/a	0.0	0	0	0	FR3	1	R1163T
2331.952	0.799	1478160	WORD_OFF	n/a	n/a	PARK	4	0	13	[0, 0, 0]	n/a	0	0	0	n/a	n/a	0.0	0	0	0	FR3	1	R1163T
2332.751	1.6	1478958	WORD	n/a	wordpools/wordpool.txt	PALM	5	0	13	[0, 0, 0]	n/a	0	0	0	n/a	n/a	0.0	0	0	0	FR3	1	R1163T
2334.368	0.918	1480575	WORD_OFF	n/a	n/a	PALM	5	0	13	[0, 0, 0]	n/a	0	0	0	n/a	n/a	0.0	0	0	0	FR3	1	R1163T
2335.286	1.6	1481493	WORD	n/a	wordpools/wordpool.txt	CHALK	6	0	13	[0, 0, 0]	n/a	0	0	0	n/a	n/a	0.0	0	0	0	FR3	1	R1163T
2336.902	0.983	1483109	WORD_OFF	n/a	n/a	CHALK	6	0	13	[0, 0, 0]	n/a	0	0	0	n/a	n/a	0.0	0	0	0	FR3	1	R1163T
2337.885	1.6	1484092	WORD	n/a	wordpools/wordpool.txt	TOE	7	0	13	[0, 0, 0]	n/a	0	0	0	n/a	n/a	0.0	0	0	0	FR3	1	R1163T
2339.502	0.867	1485709	WORD_OFF	n/a	n/a	TOE	7	0	13	[0, 0, 0]	n/a	0	0	0	n/a	n/a	0.0	0	0	0	FR3	1	R1163T
2340.369	1.6	1486576	WORD	n/a	wordpools/wordpool.txt	HOOF	8	0	13	[0, 0, 0]	n/a	0	0	0	n/a	n/a	0.0	0	0	0	FR3	1	R1163T
2341.987	0.782	1488194	WORD_OFF	n/a	n/a	HOOF	8	0	13	[0, 0, 0]	n/a	0	0	0	n/a	n/a	0.0	0	0	0	FR3	1	R1163T
2342.769	1.6	1488976	WORD	n/a	wordpools/wordpool.txt	BAG	9	0	13	[0, 0, 0]	n/a	0	0	0	n/a	n/a	0.0	0	0	0	FR3	1	R1163T
2344.386	0.967	1490593	WORD_OFF	n/a	n/a	BAG	9	0	13	[0, 0, 0]	n/a	0	0	0	n/a	n/a	0.0	0	0	0	FR3	1	R1163T
2345.353	1.6	1491560	WORD	n/a	wordpools/wordpool.txt	GATE	10	1	13	[0, 0, 0]	n/a	0	0	0	n/a	n/a	0.0	0	0	0	FR3	1	R1163T
2346.954	0.833	1493161	WORD_OFF	n/a	n/a	GATE	10	0	13	[0, 0, 0]	n/a	0	0	0	n/a	n/a	0.0	0	0	0	FR3	1	R1163T
2347.787	1.6	1493994	WORD	n/a	wordpools/wordpool.txt	BOWL	11	0	13	[0, 0, 0]	n/a	0	0	0	n/a	n/a	0.0	0	0	0	FR3	1	R1163T
2349.404	0.801	1495610	WORD_OFF	n/a	n/a	BOWL	11	0	13	[0, 0, 0]	n/a	0	0	0	n/a	n/a	0.0	0	0	0	FR3	1	R1163T
2350.205	1.6	1496411	WORD	n/a	wordpools/wordpool.txt	TIE	12	0	13	[0, 0, 0]	n/a	0	0	0	n/a	n/a	0.0	0	0	0	FR3	1	R1163T
2351.821	0.0	1498027	DISTRACT_START	n/a	n/a	n/a	-999	0	13	[0, 0, 0]	n/a	0	0	0	n/a	n/a	0.0	0	0	0	FR3	1	R1163T
2351.821	0.001	1498027	WORD_OFF	n/a	n/a	TIE	12	0	13	[0, 0, 0]	n/a	0	0	0	n/a	n/a	0.0	0	0	0	FR3	1	R1163T
2351.822	0.016	1498028	START	n/a	n/a	n/a	-999	0	13	[-999, -999, -999]	n/a	0	0	0	n/a	n/a	0.0	0	0	0	FR3	1	R1163T
2351.838	8.136	1498044	PROB	8.097	n/a	n/a	-999	0	13	[9, 3, 6]	17	0	0	0	n/a	n/a	0.0	0	0	0	FR3	1	R1163T
2359.974	7.8	1506180	PROB	7.762	n/a	n/a	-999	0	13	[6, 9, 5]	15	0	0	0	n/a	n/a	0.0	0	0	0	FR3	1	R1163T
2367.774	9.849	1513979	PROB	9.849	n/a	n/a	-999	0	13	[6, 5, 3]	13	0	0	0	n/a	n/a	0.0	0	0	0	FR3	1	R1163T
2377.623	0.02	1523828	STOP	n/a	n/a	n/a	-999	0	13	[-999, -999, -999]	n/a	0	0	0	n/a	n/a	0.0	0	0	0	FR3	1	R1163T
2377.643	0.517	1523848	DISTRACT_END	n/a	n/a	n/a	-999	0	13	[0, 0, 0]	n/a	0	0	0	n/a	n/a	0.0	0	0	0	FR3	1	R1163T
2378.16	0.5	1524365	RETRIEVAL_ORIENT	n/a	n/a	n/a	-999	0	13	[0, 0, 0]	n/a	0	0	0	n/a	n/a	0.0	0	0	0	FR3	1	R1163T
2378.677	2.29	1524882	REC_START	n/a	n/a	n/a	-999	0	13	[0, 0, 0]	n/a	0	0	0	n/a	n/a	0.0	0	0	0	FR3	1	R1163T
2380.967	1.824	1527172	REC_WORD	2.29	n/a	GATE	10	1	13	[0, 0, 0]	n/a	0	0	0	n/a	n/a	0.0	0	0	0	FR3	1	R1163T
2382.791	25.898	1528996	REC_WORD	4.114	n/a	PHONE	1	1	13	[0, 0, 0]	n/a	0	0	0	n/a	n/a	0.0	0	0	0	FR3	1	R1163T
2408.689	5.894	1554892	REC_END	n/a	n/a	n/a	-999	0	13	[0, 0, 0]	n/a	0	0	0	n/a	n/a	0.0	0	0	0	FR3	1	R1163T
2414.583	0.5	1560786	TRIAL	n/a	n/a	n/a	-999	0	14	[0, 0, 0]	n/a	0	0	0	n/a	n/a	0.0	0	0	0	FR3	1	R1163T
2415.083	10.0	1561286	COUNTDOWN_START	n/a	n/a	n/a	-999	0	14	[0, 0, 0]	n/a	0	0	0	n/a	n/a	0.0	0	0	0	FR3	1	R1163T
2425.511	0.007	1571713	COUNTDOWN_END	n/a	n/a	n/a	-999	0	14	[0, 0, 0]	n/a	0	0	0	n/a	n/a	0.0	0	0	0	FR3	1	R1163T
2425.518	1.6	1571720	ORIENT	n/a	n/a	n/a	-999	0	14	[0, 0, 0]	n/a	0	0	0	n/a	n/a	0.0	0	0	0	FR3	1	R1163T
2427.136	2.184	1573338	ORIENT_OFF	n/a	n/a	n/a	-999	0	14	[0, 0, 0]	n/a	0	0	0	n/a	n/a	0.0	0	0	0	FR3	1	R1163T
2429.32	1.6	1575522	WORD	n/a	wordpools/wordpool.txt	SOUP	1	0	14	[0, 0, 0]	n/a	0	0	0	n/a	n/a	0.0	0	0	0	FR3	1	R1163T
2430.936	0.933	1577138	WORD_OFF	n/a	n/a	SOUP	1	0	14	[0, 0, 0]	n/a	0	0	0	n/a	n/a	0.0	0	0	0	FR3	1	R1163T
2431.869	1.6	1578071	WORD	n/a	wordpools/wordpool.txt	GLOVE	2	0	14	[0, 0, 0]	n/a	0	0	0	n/a	n/a	0.0	0	0	0	FR3	1	R1163T
2433.486	0.784	1579688	WORD_OFF	n/a	n/a	GLOVE	2	0	14	[0, 0, 0]	n/a	0	0	0	n/a	n/a	0.0	0	0	0	FR3	1	R1163T
2434.27	1.6	1580471	WORD	n/a	wordpools/wordpool.txt	COUCH	3	0	14	[0, 0, 0]	n/a	0	0	0	n/a	n/a	0.0	0	0	0	FR3	1	R1163T
2435.886	0.784	1582087	WORD_OFF	n/a	n/a	COUCH	3	0	14	[0, 0, 0]	n/a	0	0	0	n/a	n/a	0.0	0	0	0	FR3	1	R1163T
2436.67	1.6	1582871	WORD	n/a	wordpools/wordpool.txt	BOOK	4	1	14	[0, 0, 0]	n/a	0	0	0	n/a	n/a	0.0	0	0	0	FR3	1	R1163T
2438.288	0.9	1584489	WORD_OFF	n/a	n/a	BOOK	4	0	14	[0, 0, 0]	n/a	0	0	0	n/a	n/a	0.0	0	0	0	FR3	1	R1163T
2439.188	1.6	1585389	WORD	n/a	wordpools/wordpool.txt	CHEEK	5	0	14	[0, 0, 0]	n/a	0	0	0	n/a	n/a	0.0	0	0	0	FR3	1	R1163T
2440.804	0.834	1587005	WORD_OFF	n/a	n/a	CHEEK	5	0	14	[0, 0, 0]	n/a	0	0	0	n/a	n/a	0.0	0	0	0	FR3	1	R1163T
2441.638	1.6	1587839	WORD	n/a	wordpools/wordpool.txt	LAND	6	0	14	[0, 0, 0]	n/a	0	0	0	n/a	n/a	0.0	0	0	0	FR3	1	R1163T
2443.256	0.9	1589457	WORD_OFF	n/a	n/a	LAND	6	0	14	[0, 0, 0]	n/a	0	0	0	n/a	n/a	0.0	0	0	0	FR3	1	R1163T
2444.156	1.6	1590357	WORD	n/a	wordpools/wordpool.txt	ROSE	7	0	14	[0, 0, 0]	n/a	0	0	0	n/a	n/a	0.0	0	0	0	FR3	1	R1163T
2445.772	1.016	1591973	WORD_OFF	n/a	n/a	ROSE	7	0	14	[0, 0, 0]	n/a	0	0	0	n/a	n/a	0.0	0	0	0	FR3	1	R1163T
2446.788	1.6	1592989	WORD	n/a	wordpools/wordpool.txt	WEED	8	0	14	[0, 0, 0]	n/a	0	0	0	n/a	n/a	0.0	0	0	0	FR3	1	R1163T
2448.405	0.852	1594606	WORD_OFF	n/a	n/a	WEED	8	0	14	[0, 0, 0]	n/a	0	0	0	n/a	n/a	0.0	0	0	0	FR3	1	R1163T
2449.257	1.6	1595458	WORD	n/a	wordpools/wordpool.txt	PURSE	9	0	14	[0, 0, 0]	n/a	0	0	0	n/a	n/a	0.0	0	0	0	FR3	1	R1163T
2450.873	0.916	1597073	WORD_OFF	n/a	n/a	PURSE	9	0	14	[0, 0, 0]	n/a	0	0	0	n/a	n/a	0.0	0	0	0	FR3	1	R1163T
2451.789	1.6	1597989	WORD	n/a	wordpools/wordpool.txt	COIN	10	0	14	[0, 0, 0]	n/a	0	0	0	n/a	n/a	0.0	0	0	0	FR3	1	R1163T
2453.406	0.918	1599606	WORD_OFF	n/a	n/a	COIN	10	0	14	[0, 0, 0]	n/a	0	0	0	n/a	n/a	0.0	0	0	0	FR3	1	R1163T
2454.324	1.6	1600524	WORD	n/a	wordpools/wordpool.txt	STREET	11	0	14	[0, 0, 0]	n/a	0	0	0	n/a	n/a	0.0	0	0	0	FR3	1	R1163T
2455.94	0.984	1602140	WORD_OFF	n/a	n/a	STREET	11	0	14	[0, 0, 0]	n/a	0	0	0	n/a	n/a	0.0	0	0	0	FR3	1	R1163T
2456.924	1.6	1603124	WORD	n/a	wordpools/wordpool.txt	MUD	12	0	14	[0, 0, 0]	n/a	0	0	0	n/a	n/a	0.0	0	0	0	FR3	1	R1163T
2458.541	0.0	1604741	WORD_OFF	n/a	n/a	MUD	12	0	14	[0, 0, 0]	n/a	0	0	0	n/a	n/a	0.0	0	0	0	FR3	1	R1163T
2458.541	0.0	1604741	DISTRACT_START	n/a	n/a	n/a	-999	0	14	[0, 0, 0]	n/a	0	0	0	n/a	n/a	0.0	0	0	0	FR3	1	R1163T
2458.541	0.016	1604741	START	n/a	n/a	n/a	-999	0	14	[-999, -999, -999]	n/a	0	0	0	n/a	n/a	0.0	0	0	0	FR3	1	R1163T
2458.557	10.236	1604757	PROB	10.211	n/a	n/a	-999	0	14	[3, 7, 6]	16	0	0	0	n/a	n/a	0.0	0	0	0	FR3	1	R1163T
2468.793	11.071	1614992	PROB	11.071	n/a	n/a	-999	0	14	[2, 8, 8]	18	0	0	0	n/a	n/a	0.0	0	0	0	FR3	1	R1163T
2479.864	0.014	1626063	STOP	n/a	n/a	n/a	-999	0	14	[-999, -999, -999]	n/a	0	0	0	n/a	n/a	0.0	0	0	0	FR3	1	R1163T
2479.878	0.533	1626077	DISTRACT_END	n/a	n/a	n/a	-999	0	14	[0, 0, 0]	n/a	0	0	0	n/a	n/a	0.0	0	0	0	FR3	1	R1163T
2480.411	0.5	1626610	RETRIEVAL_ORIENT	n/a	n/a	n/a	-999	0	14	[0, 0, 0]	n/a	0	0	0	n/a	n/a	0.0	0	0	0	FR3	1	R1163T
2480.929	4.19	1627128	REC_START	n/a	n/a	n/a	-999	0	14	[0, 0, 0]	n/a	0	0	0	n/a	n/a	0.0	0	0	0	FR3	1	R1163T
2485.119	25.824	1631317	REC_WORD	4.19	n/a	BOOK	4	1	14	[0, 0, 0]	n/a	0	0	0	n/a	n/a	0.0	0	0	0	FR3	1	R1163T
2510.943	7.609	1657140	REC_END	n/a	n/a	n/a	-999	0	14	[0, 0, 0]	n/a	0	0	0	n/a	n/a	0.0	0	0	0	FR3	1	R1163T
2518.552	0.5	1664749	TRIAL	n/a	n/a	n/a	-999	0	15	[0, 0, 0]	n/a	0	0	0	n/a	n/a	0.0	0	0	0	FR3	1	R1163T
2519.052	10.0	1665248	COUNTDOWN_START	n/a	n/a	n/a	-999	0	15	[0, 0, 0]	n/a	0	0	0	n/a	n/a	0.0	0	0	0	FR3	1	R1163T
2529.48	0.007	1675676	COUNTDOWN_END	n/a	n/a	n/a	-999	0	15	[0, 0, 0]	n/a	0	0	0	n/a	n/a	0.0	0	0	0	FR3	1	R1163T
2529.487	1.6	1675683	ORIENT	n/a	n/a	n/a	-999	0	15	[0, 0, 0]	n/a	0	0	0	n/a	n/a	0.0	0	0	0	FR3	1	R1163T
2531.088	2.084	1677284	ORIENT_OFF	n/a	n/a	n/a	-999	0	15	[0, 0, 0]	n/a	0	0	0	n/a	n/a	0.0	0	0	0	FR3	1	R1163T
2533.172	1.6	1679368	WORD	n/a	wordpools/wordpool.txt	DART	1	0	15	[0, 0, 0]	n/a	0	0	0	n/a	n/a	0.0	0	0	0	FR3	1	R1163T
2534.788	0.833	1680984	WORD_OFF	n/a	n/a	DART	1	0	15	[0, 0, 0]	n/a	0	0	0	n/a	n/a	0.0	0	0	0	FR3	1	R1163T
2535.621	1.6	1681816	WORD	n/a	wordpools/wordpool.txt	PIG	2	1	15	[0, 0, 0]	n/a	0	0	0	n/a	n/a	0.0	0	0	0	FR3	1	R1163T
2537.222	0.884	1683417	WORD_OFF	n/a	n/a	PIG	2	0	15	[0, 0, 0]	n/a	0	0	0	n/a	n/a	0.0	0	0	0	FR3	1	R1163T
2538.106	1.6	1684301	WORD	n/a	wordpools/wordpool.txt	RAKE	3	0	15	[0, 0, 0]	n/a	0	0	0	n/a	n/a	0.0	0	0	0	FR3	1	R1163T
2539.722	0.867	1685917	WORD_OFF	n/a	n/a	RAKE	3	0	15	[0, 0, 0]	n/a	0	0	0	n/a	n/a	0.0	0	0	0	FR3	1	R1163T
2540.589	1.6	1686784	WORD	n/a	wordpools/wordpool.txt	SNAKE	4	0	15	[0, 0, 0]	n/a	0	0	0	n/a	n/a	0.0	0	0	0	FR3	1	R1163T
2542.207	0.8	1688402	WORD_OFF	n/a	n/a	SNAKE	4	0	15	[0, 0, 0]	n/a	0	0	0	n/a	n/a	0.0	0	0	0	FR3	1	R1163T
2543.007	1.6	1689202	WORD	n/a	wordpools/wordpool.txt	CAVE	5	0	15	[0, 0, 0]	n/a	0	0	0	n/a	n/a	0.0	0	0	0	FR3	1	R1163T
2544.623	0.767	1690818	WORD_OFF	n/a	n/a	CAVE	5	0	15	[0, 0, 0]	n/a	0	0	0	n/a	n/a	0.0	0	0	0	FR3	1	R1163T
2545.39	1.6	1691585	WORD	n/a	wordpools/wordpool.txt	TOAD	6	0	15	[0, 0, 0]	n/a	0	0	0	n/a	n/a	0.0	0	0	0	FR3	1	R1163T
2546.991	0.783	1693186	WORD_OFF	n/a	n/a	TOAD	6	0	15	[0, 0, 0]	n/a	0	0	0	n/a	n/a	0.0	0	0	0	FR3	1	R1163T
2547.774	1.6	1693969	WORD	n/a	wordpools/wordpool.txt	SOAP	7	0	15	[0, 0, 0]	n/a	0	0	0	n/a	n/a	0.0	0	0	0	FR3	1	R1163T
2549.391	0.983	1695586	WORD_OFF	n/a	n/a	SOAP	7	0	15	[0, 0, 0]	n/a	0	0	0	n/a	n/a	0.0	0	0	0	FR3	1	R1163T
2550.374	1.6	1696569	WORD	n/a	wordpools/wordpool.txt	BEE	8	0	15	[0, 0, 0]	n/a	0	0	0	n/a	n/a	0.0	0	0	0	FR3	1	R1163T
2551.992	0.899	1698187	WORD_OFF	n/a	n/a	BEE	8	0	15	[0, 0, 0]	n/a	0	0	0	n/a	n/a	0.0	0	0	0	FR3	1	R1163T
2552.891	1.6	1699085	WORD	n/a	wordpools/wordpool.txt	SHRIMP	9	0	15	[0, 0, 0]	n/a	0	0	0	n/a	n/a	0.0	0	0	0	FR3	1	R1163T
2554.508	0.867	1700702	WORD_OFF	n/a	n/a	SHRIMP	9	0	15	[0, 0, 0]	n/a	0	0	0	n/a	n/a	0.0	0	0	0	FR3	1	R1163T
2555.375	1.6	1701569	WORD	n/a	wordpools/wordpool.txt	SHELL	10	0	15	[0, 0, 0]	n/a	0	0	0	n/a	n/a	0.0	0	0	0	FR3	1	R1163T
2556.993	0.899	1703187	WORD_OFF	n/a	n/a	SHELL	10	0	15	[0, 0, 0]	n/a	0	0	0	n/a	n/a	0.0	0	0	0	FR3	1	R1163T
2557.892	1.6	1704086	WORD	n/a	wordpools/wordpool.txt	INK	11	0	15	[0, 0, 0]	n/a	0	0	0	n/a	n/a	0.0	0	0	0	FR3	1	R1163T
2559.509	0.9	1705703	WORD_OFF	n/a	n/a	INK	11	0	15	[0, 0, 0]	n/a	0	0	0	n/a	n/a	0.0	0	0	0	FR3	1	R1163T
2560.409	1.6	1706603	WORD	n/a	wordpools/wordpool.txt	PIPE	12	0	15	[0, 0, 0]	n/a	0	0	0	n/a	n/a	0.0	0	0	0	FR3	1	R1163T
2562.01	0.0	1708204	WORD_OFF	n/a	n/a	PIPE	12	0	15	[0, 0, 0]	n/a	0	0	0	n/a	n/a	0.0	0	0	0	FR3	1	R1163T
2562.01	0.001	1708204	DISTRACT_START	n/a	n/a	n/a	-999	0	15	[0, 0, 0]	n/a	0	0	0	n/a	n/a	0.0	0	0	0	FR3	1	R1163T
2562.011	0.016	1708205	START	n/a	n/a	n/a	-999	0	15	[-999, -999, -999]	n/a	0	0	0	n/a	n/a	0.0	0	0	0	FR3	1	R1163T
2562.027	3.968	1708221	PROB	3.933	n/a	n/a	-999	0	15	[7, 3, 1]	11	0	0	0	n/a	n/a	0.0	0	0	0	FR3	1	R1163T
2565.995	12.085	1712189	PROB	12.052	n/a	n/a	-999	0	15	[6, 7, 3]	16	0	0	0	n/a	n/a	0.0	0	0	0	FR3	1	R1163T
2578.08	7.68	1724273	PROB	7.68	n/a	n/a	-999	0	15	[7, 8, 6]	16	0	0	0	n/a	n/a	0.0	0	0	0	FR3	1	R1163T
2585.76	0.02	1731953	STOP	n/a	n/a	n/a	-999	0	15	[-999, -999, -999]	n/a	0	0	0	n/a	n/a	0.0	0	0	0	FR3	1	R1163T
2585.78	0.667	1731973	DISTRACT_END	n/a	n/a	n/a	-999	0	15	[0, 0, 0]	n/a	0	0	0	n/a	n/a	0.0	0	0	0	FR3	1	R1163T
2586.447	0.5	1732640	RETRIEVAL_ORIENT	n/a	n/a	n/a	-999	0	15	[0, 0, 0]	n/a	0	0	0	n/a	n/a	0.0	0	0	0	FR3	1	R1163T
2586.966	2.392	1733158	REC_START	n/a	n/a	n/a	-999	0	15	[0, 0, 0]	n/a	0	0	0	n/a	n/a	0.0	0	0	0	FR3	1	R1163T
2589.358	27.618	1735550	REC_WORD	2.392	n/a	PIG	2	1	15	[0, 0, 0]	n/a	0	0	0	n/a	n/a	0.0	0	0	0	FR3	1	R1163T
2616.976	5.628	1763167	REC_END	n/a	n/a	n/a	-999	0	15	[0, 0, 0]	n/a	0	0	0	n/a	n/a	0.0	0	0	0	FR3	1	R1163T
2622.604	0.5	1768794	TRIAL	n/a	n/a	n/a	-999	0	16	[0, 0, 0]	n/a	0	1	0	n/a	n/a	0.0	0	0	0	FR3	1	R1163T
2623.104	10.0	1769294	COUNTDOWN_START	n/a	n/a	n/a	-999	0	16	[0, 0, 0]	n/a	0	1	0	n/a	n/a	0.0	0	0	0	FR3	1	R1163T
2633.532	0.007	1779722	COUNTDOWN_END	n/a	n/a	n/a	-999	0	16	[0, 0, 0]	n/a	0	1	0	n/a	n/a	0.0	0	0	0	FR3	1	R1163T
2633.539	1.6	1779729	ORIENT	n/a	n/a	n/a	-999	0	16	[0, 0, 0]	n/a	0	1	0	n/a	n/a	0.0	0	0	0	FR3	1	R1163T
2635.14	1.884	1781330	ORIENT_OFF	n/a	n/a	n/a	-999	0	16	[0, 0, 0]	n/a	0	1	0	n/a	n/a	0.0	0	0	0	FR3	1	R1163T
2637.024	1.6	1783214	WORD	n/a	wordpools/wordpool.txt	BOMB	1	0	16	[0, 0, 0]	n/a	0	1	0	n/a	n/a	0.0	0	0	0	FR3	1	R1163T
2638.64	0.767	1784829	WORD_OFF	n/a	n/a	BOMB	1	0	16	[0, 0, 0]	n/a	0	1	0	n/a	n/a	0.0	0	0	0	FR3	1	R1163T
2639.407	1.6	1785596	WORD	n/a	wordpools/wordpool.txt	CLAY	2	0	16	[0, 0, 0]	n/a	0	1	0	n/a	n/a	0.0	0	0	0	FR3	1	R1163T
2641.025	0.882	1787214	WORD_OFF	n/a	n/a	CLAY	2	0	16	[0, 0, 0]	n/a	0	1	0	n/a	n/a	0.0	0	0	0	FR3	1	R1163T
2641.907	1.6	1788096	WORD	n/a	wordpools/wordpool.txt	JET	3	0	16	[0, 0, 0]	n/a	0	1	0	n/a	n/a	0.0	0	0	0	FR3	1	R1163T
2643.524	0.884	1789713	WORD_OFF	n/a	n/a	JET	3	0	16	[0, 0, 0]	n/a	0	1	0	n/a	n/a	0.0	0	0	0	FR3	1	R1163T
2644.408	1.6	1790597	WORD	n/a	wordpools/wordpool.txt	SAIL	4	0	16	[0, 0, 0]	n/a	0	1	0	n/a	n/a	0.0	0	0	0	FR3	1	R1163T
2645.993	0.0	1792182	STIM_ON	n/a	n/a	SAIL	4	0	16	[0, 0, 0]	n/a	1	1	500	LC8	LC9	500.0	10	5	300	FR3	1	R1163T
2646.026	0.367	1792215	WORD_OFF	n/a	n/a	SAIL	4	0	16	[0, 0, 0]	n/a	1	1	500	LC8	LC9	500.0	10	5	300	FR3	1	R1163T
2646.393	0.432	1792582	STIM_OFF	n/a	n/a	n/a	4	0	16	[0, 0, 0]	n/a	0	1	500	LC8	LC9	500.0	10	5	300	FR3	1	R1163T
2646.825	1.6	1793014	WORD	n/a	wordpools/wordpool.txt	SEAT	5	0	16	[0, 0, 0]	n/a	0	1	0	n/a	n/a	0.0	0	0	0	FR3	1	R1163T
2648.403	0.0	1794592	STIM_ON	n/a	n/a	SEAT	5	0	16	[0, 0, 0]	n/a	1	1	500	LC8	LC9	500.0	10	5	300	FR3	1	R1163T
2648.442	0.361	1794631	WORD_OFF	n/a	n/a	SEAT	5	0	16	[0, 0, 0]	n/a	1	1	500	LC8	LC9	500.0	10	5	300	FR3	1	R1163T
2648.803	0.44	1794992	STIM_OFF	n/a	n/a	n/a	5	0	16	[0, 0, 0]	n/a	0	1	500	LC8	LC9	500.0	10	5	300	FR3	1	R1163T
2649.243	1.6	1795432	WORD	n/a	wordpools/wordpool.txt	FOX	6	0	16	[0, 0, 0]	n/a	0	1	0	n/a	n/a	0.0	0	0	0	FR3	1	R1163T
2650.859	0.95	1797048	WORD_OFF	n/a	n/a	FOX	6	0	16	[0, 0, 0]	n/a	0	1	0	n/a	n/a	0.0	0	0	0	FR3	1	R1163T
2651.809	1.6	1797998	WORD	n/a	wordpools/wordpool.txt	CALF	7	0	16	[0, 0, 0]	n/a	0	1	0	n/a	n/a	0.0	0	0	0	FR3	1	R1163T
2653.426	0.818	1799615	WORD_OFF	n/a	n/a	CALF	7	0	16	[0, 0, 0]	n/a	0	1	0	n/a	n/a	0.0	0	0	0	FR3	1	R1163T
2654.244	1.6	1800433	WORD	n/a	wordpools/wordpool.txt	FUDGE	8	0	16	[0, 0, 0]	n/a	0	1	0	n/a	n/a	0.0	0	0	0	FR3	1	R1163T
2655.823	0.0	1802011	STIM_ON	n/a	n/a	FUDGE	8	0	16	[0, 0, 0]	n/a	1	1	500	LC8	LC9	500.0	10	5	300	FR3	1	R1163T
2655.86	0.363	1802048	WORD_OFF	n/a	n/a	FUDGE	8	0	16	[0, 0, 0]	n/a	1	1	500	LC8	LC9	500.0	10	5	300	FR3	1	R1163T
2656.223	0.604	1802411	STIM_OFF	n/a	n/a	n/a	8	0	16	[0, 0, 0]	n/a	0	1	500	LC8	LC9	500.0	10	5	300	FR3	1	R1163T
2656.827	1.6	1803015	WORD	n/a	wordpools/wordpool.txt	BEAR	9	0	16	[0, 0, 0]	n/a	0	1	0	n/a	n/a	0.0	0	0	0	FR3	1	R1163T
2658.419	0.0	1804607	STIM_ON	n/a	n/a	BEAR	9	0	16	[0, 0, 0]	n/a	1	1	500	LC8	LC9	500.0	10	5	300	FR3	1	R1163T
2658.444	0.375	1804632	WORD_OFF	n/a	n/a	BEAR	9	0	16	[0, 0, 0]	n/a	1	1	500	LC8	LC9	500.0	10	5	300	FR3	1	R1163T
2658.819	0.459	1805007	STIM_OFF	n/a	n/a	n/a	9	0	16	[0, 0, 0]	n/a	0	1	500	LC8	LC9	500.0	10	5	300	FR3	1	R1163T
2659.278	1.6	1805466	WORD	n/a	wordpools/wordpool.txt	POND	10	1	16	[0, 0, 0]	n/a	0	1	0	n/a	n/a	0.0	0	0	0	FR3	1	R1163T
2660.894	1.017	1807082	WORD_OFF	n/a	n/a	POND	10	0	16	[0, 0, 0]	n/a	0	1	0	n/a	n/a	0.0	0	0	0	FR3	1	R1163T
2661.911	1.6	1808099	WORD	n/a	wordpools/wordpool.txt	ROOM	11	0	16	[0, 0, 0]	n/a	0	1	0	n/a	n/a	0.0	0	0	0	FR3	1	R1163T
2663.528	0.784	1809716	WORD_OFF	n/a	n/a	ROOM	11	0	16	[0, 0, 0]	n/a	0	1	0	n/a	n/a	0.0	0	0	0	FR3	1	R1163T
2664.312	1.6	1810500	WORD	n/a	wordpools/wordpool.txt	FOOD	12	0	16	[0, 0, 0]	n/a	0	1	0	n/a	n/a	0.0	0	0	0	FR3	1	R1163T
2665.928	0.0	1812116	WORD_OFF	n/a	n/a	FOOD	12	0	16	[0, 0, 0]	n/a	0	1	0	n/a	n/a	0.0	0	0	0	FR3	1	R1163T
2665.928	0.001	1812116	DISTRACT_START	n/a	n/a	n/a	-999	0	16	[0, 0, 0]	n/a	0	1	0	n/a	n/a	0.0	0	0	0	FR3	1	R1163T
2665.929	0.017	1812117	START	n/a	n/a	n/a	-999	0	16	[-999, -999, -999]	n/a	0	1	0	n/a	n/a	0.0	0	0	0	FR3	1	R1163T
2665.946	11.768	1812134	PROB	11.741	n/a	n/a	-999	0	16	[5, 7, 7]	16	0	1	0	n/a	n/a	0.0	0	0	0	FR3	1	R1163T
2677.714	13.558	1823901	PROB	13.558	n/a	n/a	-999	0	16	[9, 6, 9]	14	0	1	0	n/a	n/a	0.0	0	0	0	FR3	1	R1163T
2691.272	0.012	1837458	STOP	n/a	n/a	n/a	-999	0	16	[-999, -999, -999]	n/a	0	1	0	n/a	n/a	0.0	0	0	0	FR3	1	R1163T
2691.284	0.667	1837470	DISTRACT_END	n/a	n/a	n/a	-999	0	16	[0, 0, 0]	n/a	0	1	0	n/a	n/a	0.0	0	0	0	FR3	1	R1163T
2691.951	0.5	1838137	RETRIEVAL_ORIENT	n/a	n/a	n/a	-999	0	16	[0, 0, 0]	n/a	0	1	0	n/a	n/a	0.0	0	0	0	FR3	1	R1163T
2692.468	3.337	1838654	REC_START	n/a	n/a	n/a	-999	0	16	[0, 0, 0]	n/a	0	1	0	n/a	n/a	0.0	0	0	0	FR3	1	R1163T
2695.805	26.673	1841991	REC_WORD	3.337	n/a	POND	10	1	16	[0, 0, 0]	n/a	0	1	0	n/a	n/a	0.0	0	0	0	FR3	1	R1163T
2722.478	12.313	1868662	REC_END	n/a	n/a	n/a	-999	0	16	[0, 0, 0]	n/a	0	1	0	n/a	n/a	0.0	0	0	0	FR3	1	R1163T
2734.791	0.5	1880975	TRIAL	n/a	n/a	n/a	-999	0	17	[0, 0, 0]	n/a	0	0	0	n/a	n/a	0.0	0	0	0	FR3	1	R1163T
2735.291	10.0	1881475	COUNTDOWN_START	n/a	n/a	n/a	-999	0	17	[0, 0, 0]	n/a	0	0	0	n/a	n/a	0.0	0	0	0	FR3	1	R1163T
2745.719	0.007	1891902	COUNTDOWN_END	n/a	n/a	n/a	-999	0	17	[0, 0, 0]	n/a	0	0	0	n/a	n/a	0.0	0	0	0	FR3	1	R1163T
2745.726	1.6	1891909	ORIENT	n/a	n/a	n/a	-999	0	17	[0, 0, 0]	n/a	0	0	0	n/a	n/a	0.0	0	0	0	FR3	1	R1163T
2747.343	1.902	1893526	ORIENT_OFF	n/a	n/a	n/a	-999	0	17	[0, 0, 0]	n/a	0	0	0	n/a	n/a	0.0	0	0	0	FR3	1	R1163T
2749.245	1.6	1895428	WORD	n/a	wordpools/wordpool.txt	ARM	1	0	17	[0, 0, 0]	n/a	0	0	0	n/a	n/a	0.0	0	0	0	FR3	1	R1163T
2750.86	0.934	1897043	WORD_OFF	n/a	n/a	ARM	1	0	17	[0, 0, 0]	n/a	0	0	0	n/a	n/a	0.0	0	0	0	FR3	1	R1163T
2751.794	1.6	1897977	WORD	n/a	wordpools/wordpool.txt	OWL	2	0	17	[0, 0, 0]	n/a	0	0	0	n/a	n/a	0.0	0	0	0	FR3	1	R1163T
2753.411	0.984	1899594	WORD_OFF	n/a	n/a	OWL	2	0	17	[0, 0, 0]	n/a	0	0	0	n/a	n/a	0.0	0	0	0	FR3	1	R1163T
2754.395	1.6	1900578	WORD	n/a	wordpools/wordpool.txt	WORM	3	0	17	[0, 0, 0]	n/a	0	0	0	n/a	n/a	0.0	0	0	0	FR3	1	R1163T
2756.012	0.9	1902194	WORD_OFF	n/a	n/a	WORM	3	0	17	[0, 0, 0]	n/a	0	0	0	n/a	n/a	0.0	0	0	0	FR3	1	R1163T
2756.912	1.6	1903094	WORD	n/a	wordpools/wordpool.txt	CAT	4	1	17	[0, 0, 0]	n/a	0	0	0	n/a	n/a	0.0	0	0	0	FR3	1	R1163T
2758.529	0.95	1904711	WORD_OFF	n/a	n/a	CAT	4	0	17	[0, 0, 0]	n/a	0	0	0	n/a	n/a	0.0	0	0	0	FR3	1	R1163T
2759.479	1.6	1905661	WORD	n/a	wordpools/wordpool.txt	BROOM	5	0	17	[0, 0, 0]	n/a	0	0	0	n/a	n/a	0.0	0	0	0	FR3	1	R1163T
2761.097	0.883	1907279	WORD_OFF	n/a	n/a	BROOM	5	0	17	[0, 0, 0]	n/a	0	0	0	n/a	n/a	0.0	0	0	0	FR3	1	R1163T
2761.98	1.6	1908162	WORD	n/a	wordpools/wordpool.txt	POLE	6	0	17	[0, 0, 0]	n/a	0	0	0	n/a	n/a	0.0	0	0	0	FR3	1	R1163T
2763.596	0.967	1909778	WORD_OFF	n/a	n/a	POLE	6	0	17	[0, 0, 0]	n/a	0	0	0	n/a	n/a	0.0	0	0	0	FR3	1	R1163T
2764.563	1.6	1910745	WORD	n/a	wordpools/wordpool.txt	BRICK	7	0	17	[0, 0, 0]	n/a	0	0	0	n/a	n/a	0.0	0	0	0	FR3	1	R1163T
2766.181	0.984	1912363	WORD_OFF	n/a	n/a	BRICK	7	0	17	[0, 0, 0]	n/a	0	0	0	n/a	n/a	0.0	0	0	0	FR3	1	R1163T
2767.165	1.6	1913347	WORD	n/a	wordpools/wordpool.txt	DOOR	8	0	17	[0, 0, 0]	n/a	0	0	0	n/a	n/a	0.0	0	0	0	FR3	1	R1163T
2768.78	0.801	1914962	WORD_OFF	n/a	n/a	DOOR	8	0	17	[0, 0, 0]	n/a	0	0	0	n/a	n/a	0.0	0	0	0	FR3	1	R1163T
2769.581	1.6	1915763	WORD	n/a	wordpools/wordpool.txt	RAT	9	0	17	[0, 0, 0]	n/a	0	0	0	n/a	n/a	0.0	0	0	0	FR3	1	R1163T
2771.199	0.85	1917381	WORD_OFF	n/a	n/a	RAT	9	0	17	[0, 0, 0]	n/a	0	0	0	n/a	n/a	0.0	0	0	0	FR3	1	R1163T
2772.049	1.6	1918231	WORD	n/a	wordpools/wordpool.txt	DOLL	10	0	17	[0, 0, 0]	n/a	0	0	0	n/a	n/a	0.0	0	0	0	FR3	1	R1163T
2773.665	1.017	1919846	WORD_OFF	n/a	n/a	DOLL	10	0	17	[0, 0, 0]	n/a	0	0	0	n/a	n/a	0.0	0	0	0	FR3	1	R1163T
2774.682	1.6	1920863	WORD	n/a	wordpools/wordpool.txt	PET	11	1	17	[0, 0, 0]	n/a	0	0	0	n/a	n/a	0.0	0	0	0	FR3	1	R1163T
2776.3	0.866	1922481	WORD_OFF	n/a	n/a	PET	11	0	17	[0, 0, 0]	n/a	0	0	0	n/a	n/a	0.0	0	0	0	FR3	1	R1163T
2777.166	1.6	1923347	WORD	n/a	wordpools/wordpool.txt	WORLD	12	0	17	[0, 0, 0]	n/a	0	0	0	n/a	n/a	0.0	0	0	0	FR3	1	R1163T
2778.782	0.0	1924963	WORD_OFF	n/a	n/a	WORLD	12	0	17	[0, 0, 0]	n/a	0	0	0	n/a	n/a	0.0	0	0	0	FR3	1	R1163T
2778.782	0.001	1924963	DISTRACT_START	n/a	n/a	n/a	-999	0	17	[0, 0, 0]	n/a	0	0	0	n/a	n/a	0.0	0	0	0	FR3	1	R1163T
2778.783	0.016	1924964	START	n/a	n/a	n/a	-999	0	17	[-999, -999, -999]	n/a	0	0	0	n/a	n/a	0.0	0	0	0	FR3	1	R1163T
2778.799	7.718	1924980	PROB	7.681	n/a	n/a	-999	0	17	[3, 3, 3]	9	0	0	0	n/a	n/a	0.0	0	0	0	FR3	1	R1163T
2786.517	7.168	1932698	PROB	7.139	n/a	n/a	-999	0	17	[6, 3, 2]	8	0	0	0	n/a	n/a	0.0	0	0	0	FR3	1	R1163T
2793.685	8.316	1939865	PROB	8.316	n/a	n/a	-999	0	17	[7, 7, 8]	14	0	0	0	n/a	n/a	0.0	0	0	0	FR3	1	R1163T
2802.001	0.02	1948181	STOP	n/a	n/a	n/a	-999	0	17	[-999, -999, -999]	n/a	0	0	0	n/a	n/a	0.0	0	0	0	FR3	1	R1163T
2802.021	0.699	1948201	DISTRACT_END	n/a	n/a	n/a	-999	0	17	[0, 0, 0]	n/a	0	0	0	n/a	n/a	0.0	0	0	0	FR3	1	R1163T
2802.72	0.5	1948900	RETRIEVAL_ORIENT	n/a	n/a	n/a	-999	0	17	[0, 0, 0]	n/a	0	0	0	n/a	n/a	0.0	0	0	0	FR3	1	R1163T
2803.239	8.334	1949419	REC_START	n/a	n/a	n/a	-999	0	17	[0, 0, 0]	n/a	0	0	0	n/a	n/a	0.0	0	0	0	FR3	1	R1163T
2811.573	6.138	1957752	REC_WORD	8.334	n/a	CAT	4	1	17	[0, 0, 0]	n/a	0	0	0	n/a	n/a	0.0	0	0	0	FR3	1	R1163T
2817.711	15.541	1963890	REC_WORD	14.472	n/a	PET	11	1	17	[0, 0, 0]	n/a	0	0	0	n/a	n/a	0.0	0	0	0	FR3	1	R1163T
2833.252	6.658	1979430	REC_END	n/a	n/a	n/a	-999	0	17	[0, 0, 0]	n/a	0	0	0	n/a	n/a	0.0	0	0	0	FR3	1	R1163T
2839.91	0.5	1986088	TRIAL	n/a	n/a	n/a	-999	0	18	[0, 0, 0]	n/a	0	1	0	n/a	n/a	0.0	0	0	0	FR3	1	R1163T
2840.41	10.0	1986588	COUNTDOWN_START	n/a	n/a	n/a	-999	0	18	[0, 0, 0]	n/a	0	1	0	n/a	n/a	0.0	0	0	0	FR3	1	R1163T
2850.838	0.007	1997015	COUNTDOWN_END	n/a	n/a	n/a	-999	0	18	[0, 0, 0]	n/a	0	1	0	n/a	n/a	0.0	0	0	0	FR3	1	R1163T
2850.845	1.6	1997022	ORIENT	n/a	n/a	n/a	-999	0	18	[0, 0, 0]	n/a	0	1	0	n/a	n/a	0.0	0	0	0	FR3	1	R1163T
2852.462	2.034	1998639	ORIENT_OFF	n/a	n/a	n/a	-999	0	18	[0, 0, 0]	n/a	0	1	0	n/a	n/a	0.0	0	0	0	FR3	1	R1163T
2854.496	1.6	2000673	WORD	n/a	wordpools/wordpool.txt	EEL	1	0	18	[0, 0, 0]	n/a	0	1	0	n/a	n/a	0.0	0	0	0	FR3	1	R1163T
2856.097	0.001	2002274	WORD_OFF	n/a	n/a	EEL	1	0	18	[0, 0, 0]	n/a	0	1	0	n/a	n/a	0.0	0	0	0	FR3	1	R1163T
2856.098	0.0	2002275	STIM_ON	n/a	n/a	n/a	1	0	18	[0, 0, 0]	n/a	1	1	500	LC8	LC9	500.0	10	5	300	FR3	1	R1163T
2856.498	0.533	2002675	STIM_OFF	n/a	n/a	n/a	1	0	18	[0, 0, 0]	n/a	0	1	500	LC8	LC9	500.0	10	5	300	FR3	1	R1163T
2857.031	1.6	2003208	WORD	n/a	wordpools/wordpool.txt	LEG	2	0	18	[0, 0, 0]	n/a	0	1	0	n/a	n/a	0.0	0	0	0	FR3	1	R1163T
2858.647	1.0	2004823	WORD_OFF	n/a	n/a	LEG	2	0	18	[0, 0, 0]	n/a	0	1	0	n/a	n/a	0.0	0	0	0	FR3	1	R1163T
2859.647	1.6	2005823	WORD	n/a	wordpools/wordpool.txt	CLOWN	3	0	18	[0, 0, 0]	n/a	0	1	0	n/a	n/a	0.0	0	0	0	FR3	1	R1163T
2861.236	0.0	2007412	STIM_ON	n/a	n/a	CLOWN	3	0	18	[0, 0, 0]	n/a	1	1	500	LC8	LC9	500.0	10	5	300	FR3	1	R1163T
2861.265	0.371	2007441	WORD_OFF	n/a	n/a	CLOWN	3	0	18	[0, 0, 0]	n/a	1	1	500	LC8	LC9	500.0	10	5	300	FR3	1	R1163T
2861.636	0.612	2007812	STIM_OFF	n/a	n/a	n/a	3	0	18	[0, 0, 0]	n/a	0	1	500	LC8	LC9	500.0	10	5	300	FR3	1	R1163T
2862.248	1.6	2008424	WORD	n/a	wordpools/wordpool.txt	TOOL	4	1	18	[0, 0, 0]	n/a	0	1	0	n/a	n/a	0.0	0	0	0	FR3	1	R1163T
2863.864	0.917	2010040	WORD_OFF	n/a	n/a	TOOL	4	0	18	[0, 0, 0]	n/a	0	1	0	n/a	n/a	0.0	0	0	0	FR3	1	R1163T
2864.781	1.6	2010957	WORD	n/a	wordpools/wordpool.txt	DIME	5	0	18	[0, 0, 0]	n/a	0	1	0	n/a	n/a	0.0	0	0	0	FR3	1	R1163T
2866.398	0.967	2012574	WORD_OFF	n/a	n/a	DIME	5	0	18	[0, 0, 0]	n/a	0	1	0	n/a	n/a	0.0	0	0	0	FR3	1	R1163T
2867.365	1.6	2013541	WORD	n/a	wordpools/wordpool.txt	PLANT	6	0	18	[0, 0, 0]	n/a	0	1	0	n/a	n/a	0.0	0	0	0	FR3	1	R1163T
2868.966	0.001	2015142	WORD_OFF	n/a	n/a	PLANT	6	0	18	[0, 0, 0]	n/a	0	1	0	n/a	n/a	0.0	0	0	0	FR3	1	R1163T
2868.967	0.0	2015143	STIM_ON	n/a	n/a	n/a	6	0	18	[0, 0, 0]	n/a	1	1	500	LC8	LC9	500.0	10	5	300	FR3	1	R1163T
2869.367	0.565	2015543	STIM_OFF	n/a	n/a	n/a	6	0	18	[0, 0, 0]	n/a	0	1	500	LC8	LC9	500.0	10	5	300	FR3	1	R1163T
2869.932	1.6	2016108	WORD	n/a	wordpools/wordpool.txt	MILK	7	0	18	[0, 0, 0]	n/a	0	1	0	n/a	n/a	0.0	0	0	0	FR3	1	R1163T
2871.531	0.0	2017707	STIM_ON	n/a	n/a	MILK	7	0	18	[0, 0, 0]	n/a	1	1	500	LC8	LC9	500.0	10	5	300	FR3	1	R1163T
2871.549	0.383	2017725	WORD_OFF	n/a	n/a	MILK	7	0	18	[0, 0, 0]	n/a	1	1	500	LC8	LC9	500.0	10	5	300	FR3	1	R1163T
2871.932	0.584	2018108	STIM_OFF	n/a	n/a	n/a	7	0	18	[0, 0, 0]	n/a	0	1	500	LC8	LC9	500.0	10	5	300	FR3	1	R1163T
2872.516	1.6	2018692	WORD	n/a	wordpools/wordpool.txt	HORSE	8	0	18	[0, 0, 0]	n/a	0	1	0	n/a	n/a	0.0	0	0	0	FR3	1	R1163T
2874.117	0.834	2020293	WORD_OFF	n/a	n/a	HORSE	8	0	18	[0, 0, 0]	n/a	0	1	0	n/a	n/a	0.0	0	0	0	FR3	1	R1163T
2874.951	1.6	2021126	WORD	n/a	wordpools/wordpool.txt	TOOTH	9	0	18	[0, 0, 0]	n/a	0	1	0	n/a	n/a	0.0	0	0	0	FR3	1	R1163T
2876.547	0.0	2022722	STIM_ON	n/a	n/a	TOOTH	9	0	18	[0, 0, 0]	n/a	1	1	500	LC8	LC9	500.0	10	5	300	FR3	1	R1163T
2876.567	0.38	2022742	WORD_OFF	n/a	n/a	TOOTH	9	0	18	[0, 0, 0]	n/a	1	1	500	LC8	LC9	500.0	10	5	300	FR3	1	R1163T
2876.947	0.403	2023122	STIM_OFF	n/a	n/a	n/a	9	0	18	[0, 0, 0]	n/a	0	1	500	LC8	LC9	500.0	10	5	300	FR3	1	R1163T
2877.35	1.6	2023525	WORD	n/a	wordpools/wordpool.txt	STEAK	10	0	18	[0, 0, 0]	n/a	0	1	0	n/a	n/a	0.0	0	0	0	FR3	1	R1163T
2878.951	0.0	2025126	STIM_ON	n/a	n/a	STEAK	10	0	18	[0, 0, 0]	n/a	1	1	500	LC8	LC9	500.0	10	5	300	FR3	1	R1163T
2878.968	0.383	2025143	WORD_OFF	n/a	n/a	STEAK	10	0	18	[0, 0, 0]	n/a	1	1	500	LC8	LC9	500.0	10	5	300	FR3	1	R1163T
2879.351	0.45	2025526	STIM_OFF	n/a	n/a	n/a	10	0	18	[0, 0, 0]	n/a	0	1	500	LC8	LC9	500.0	10	5	300	FR3	1	R1163T
2879.801	1.6	2025976	WORD	n/a	wordpools/wordpool.txt	SMOKE	11	0	18	[0, 0, 0]	n/a	0	1	0	n/a	n/a	0.0	0	0	0	FR3	1	R1163T
2881.418	0.851	2027593	WORD_OFF	n/a	n/a	SMOKE	11	0	18	[0, 0, 0]	n/a	0	1	0	n/a	n/a	0.0	0	0	0	FR3	1	R1163T
2882.269	1.6	2028444	WORD	n/a	wordpools/wordpool.txt	PRINCE	12	0	18	[0, 0, 0]	n/a	0	1	0	n/a	n/a	0.0	0	0	0	FR3	1	R1163T
2883.87	0.0	2030045	STIM_ON	n/a	n/a	PRINCE	12	0	18	[0, 0, 0]	n/a	1	1	500	LC8	LC9	500.0	10	5	300	FR3	1	R1163T
2883.885	0.0	2030060	WORD_OFF	n/a	n/a	PRINCE	12	0	18	[0, 0, 0]	n/a	1	1	500	LC8	LC9	500.0	10	5	300	FR3	1	R1163T
2883.885	0.0	2030060	DISTRACT_START	n/a	n/a	n/a	-999	0	18	[0, 0, 0]	n/a	1	1	500	LC8	LC9	500.0	10	5	300	FR3	1	R1163T
2883.885	0.016	2030060	START	n/a	n/a	n/a	-999	0	18	[-999, -999, -999]	n/a	0	1	0	n/a	n/a	0.0	0	0	0	FR3	1	R1163T
2883.901	0.369	2030076	PROB	5.595	n/a	n/a	-999	0	18	[5, 5, 7]	17	0	1	0	n/a	n/a	0.0	0	0	0	FR3	1	R1163T
2884.27	5.249	2030445	STIM_OFF	n/a	n/a	n/a	-999	0	18	[0, 0, 0]	n/a	0	1	500	LC8	LC9	500.0	10	5	300	FR3	1	R1163T
2889.519	7.201	2035694	PROB	7.175	n/a	n/a	-999	0	18	[2, 4, 5]	13	0	1	0	n/a	n/a	0.0	0	0	0	FR3	1	R1163T
2896.72	10.088	2042894	PROB	10.088	n/a	n/a	-999	0	18	[8, 5, 5]	18	0	1	0	n/a	n/a	0.0	0	0	0	FR3	1	R1163T
2906.808	0.014	2052982	STOP	n/a	n/a	n/a	-999	0	18	[-999, -999, -999]	n/a	0	1	0	n/a	n/a	0.0	0	0	0	FR3	1	R1163T
2906.822	0.517	2052996	DISTRACT_END	n/a	n/a	n/a	-999	0	18	[0, 0, 0]	n/a	0	1	0	n/a	n/a	0.0	0	0	0	FR3	1	R1163T
2907.339	0.5	2053513	RETRIEVAL_ORIENT	n/a	n/a	n/a	-999	0	18	[0, 0, 0]	n/a	0	1	0	n/a	n/a	0.0	0	0	0	FR3	1	R1163T
2907.856	2.209	2054030	REC_START	n/a	n/a	n/a	-999	0	18	[0, 0, 0]	n/a	0	1	0	n/a	n/a	0.0	0	0	0	FR3	1	R1163T
2910.065	27.804	2056238	REC_WORD	2.209	n/a	TOOL	4	1	18	[0, 0, 0]	n/a	0	1	0	n/a	n/a	0.0	0	0	0	FR3	1	R1163T
2937.869	6.543	2084041	REC_END	n/a	n/a	n/a	-999	0	18	[0, 0, 0]	n/a	0	1	0	n/a	n/a	0.0	0	0	0	FR3	1	R1163T
2944.412	0.5	2090583	TRIAL	n/a	n/a	n/a	-999	0	19	[0, 0, 0]	n/a	0	1	0	n/a	n/a	0.0	0	0	0	FR3	1	R1163T
2944.912	10.0	2091083	COUNTDOWN_START	n/a	n/a	n/a	-999	0	19	[0, 0, 0]	n/a	0	1	0	n/a	n/a	0.0	0	0	0	FR3	1	R1163T
2955.34	0.008	2101511	COUNTDOWN_END	n/a	n/a	n/a	-999	0	19	[0, 0, 0]	n/a	0	1	0	n/a	n/a	0.0	0	0	0	FR3	1	R1163T
2955.348	1.6	2101519	ORIENT	n/a	n/a	n/a	-999	0	19	[0, 0, 0]	n/a	0	1	0	n/a	n/a	0.0	0	0	0	FR3	1	R1163T
2956.966	2.05	2103137	ORIENT_OFF	n/a	n/a	n/a	-999	0	19	[0, 0, 0]	n/a	0	1	0	n/a	n/a	0.0	0	0	0	FR3	1	R1163T
2959.016	1.6	2105187	WORD	n/a	wordpools/wordpool.txt	BRUSH	1	0	19	[0, 0, 0]	n/a	0	1	0	n/a	n/a	0.0	0	0	0	FR3	1	R1163T
2960.632	0.833	2106802	WORD_OFF	n/a	n/a	BRUSH	1	0	19	[0, 0, 0]	n/a	0	1	0	n/a	n/a	0.0	0	0	0	FR3	1	R1163T
2961.465	1.6	2107635	WORD	n/a	wordpools/wordpool.txt	STORM	2	0	19	[0, 0, 0]	n/a	0	1	0	n/a	n/a	0.0	0	0	0	FR3	1	R1163T
2963.067	0.933	2109237	WORD_OFF	n/a	n/a	STORM	2	0	19	[0, 0, 0]	n/a	0	1	0	n/a	n/a	0.0	0	0	0	FR3	1	R1163T
2964.0	1.6	2110170	WORD	n/a	wordpools/wordpool.txt	SLUSH	3	0	19	[0, 0, 0]	n/a	0	1	0	n/a	n/a	0.0	0	0	0	FR3	1	R1163T
2965.616	0.85	2111786	WORD_OFF	n/a	n/a	SLUSH	3	0	19	[0, 0, 0]	n/a	0	1	0	n/a	n/a	0.0	0	0	0	FR3	1	R1163T
2966.466	1.6	2112636	WORD	n/a	wordpools/wordpool.txt	BATH	4	0	19	[0, 0, 0]	n/a	0	1	0	n/a	n/a	0.0	0	0	0	FR3	1	R1163T
2968.084	0.867	2114254	WORD_OFF	n/a	n/a	BATH	4	0	19	[0, 0, 0]	n/a	0	1	0	n/a	n/a	0.0	0	0	0	FR3	1	R1163T
2968.951	1.6	2115121	WORD	n/a	wordpools/wordpool.txt	TAIL	5	0	19	[0, 0, 0]	n/a	0	1	0	n/a	n/a	0.0	0	0	0	FR3	1	R1163T
2970.567	0.934	2116737	WORD_OFF	n/a	n/a	TAIL	5	0	19	[0, 0, 0]	n/a	0	1	0	n/a	n/a	0.0	0	0	0	FR3	1	R1163T
2971.501	1.6	2117671	WORD	n/a	wordpools/wordpool.txt	MAIL	6	0	19	[0, 0, 0]	n/a	0	1	0	n/a	n/a	0.0	0	0	0	FR3	1	R1163T
2973.109	0.0	2119279	STIM_ON	n/a	n/a	MAIL	6	0	19	[0, 0, 0]	n/a	1	1	500	LC8	LC9	500.0	10	5	300	FR3	1	R1163T
2973.119	0.39	2119289	WORD_OFF	n/a	n/a	MAIL	6	0	19	[0, 0, 0]	n/a	1	1	500	LC8	LC9	500.0	10	5	300	FR3	1	R1163T
2973.509	0.408	2119679	STIM_OFF	n/a	n/a	n/a	6	0	19	[0, 0, 0]	n/a	0	1	500	LC8	LC9	500.0	10	5	300	FR3	1	R1163T
2973.917	1.6	2120087	WORD	n/a	wordpools/wordpool.txt	MOON	7	0	19	[0, 0, 0]	n/a	0	1	0	n/a	n/a	0.0	0	0	0	FR3	1	R1163T
2975.519	0.0	2121689	STIM_ON	n/a	n/a	MOON	7	0	19	[0, 0, 0]	n/a	1	1	500	LC8	LC9	500.0	10	5	300	FR3	1	R1163T
2975.535	0.384	2121705	WORD_OFF	n/a	n/a	MOON	7	0	19	[0, 0, 0]	n/a	1	1	500	LC8	LC9	500.0	10	5	300	FR3	1	R1163T
2975.919	0.416	2122089	STIM_OFF	n/a	n/a	n/a	7	0	19	[0, 0, 0]	n/a	0	1	500	LC8	LC9	500.0	10	5	300	FR3	1	R1163T
2976.335	1.6	2122505	WORD	n/a	wordpools/wordpool.txt	ICE	8	0	19	[0, 0, 0]	n/a	0	1	0	n/a	n/a	0.0	0	0	0	FR3	1	R1163T
2977.953	0.966	2124122	WORD_OFF	n/a	n/a	ICE	8	0	19	[0, 0, 0]	n/a	0	1	0	n/a	n/a	0.0	0	0	0	FR3	1	R1163T
2978.919	1.6	2125088	WORD	n/a	wordpools/wordpool.txt	NAIL	9	0	19	[0, 0, 0]	n/a	0	1	0	n/a	n/a	0.0	0	0	0	FR3	1	R1163T
2980.536	1.0	2126705	WORD_OFF	n/a	n/a	NAIL	9	0	19	[0, 0, 0]	n/a	0	1	0	n/a	n/a	0.0	0	0	0	FR3	1	R1163T
2981.536	1.6	2127705	WORD	n/a	wordpools/wordpool.txt	CROWN	10	0	19	[0, 0, 0]	n/a	0	1	0	n/a	n/a	0.0	0	0	0	FR3	1	R1163T
2983.154	0.766	2129323	WORD_OFF	n/a	n/a	CROWN	10	0	19	[0, 0, 0]	n/a	0	1	0	n/a	n/a	0.0	0	0	0	FR3	1	R1163T
2983.92	1.6	2130089	WORD	n/a	wordpools/wordpool.txt	HEN	11	0	19	[0, 0, 0]	n/a	0	1	0	n/a	n/a	0.0	0	0	0	FR3	1	R1163T
2985.537	0.883	2131706	WORD_OFF	n/a	n/a	HEN	11	0	19	[0, 0, 0]	n/a	0	1	0	n/a	n/a	0.0	0	0	0	FR3	1	R1163T
2986.42	1.6	2132589	WORD	n/a	wordpools/wordpool.txt	SEA	12	1	19	[0, 0, 0]	n/a	0	1	0	n/a	n/a	0.0	0	0	0	FR3	1	R1163T
2988.038	0.0	2134207	DISTRACT_START	n/a	n/a	n/a	-999	0	19	[0, 0, 0]	n/a	0	1	0	n/a	n/a	0.0	0	0	0	FR3	1	R1163T
2988.038	0.001	2134207	WORD_OFF	n/a	n/a	SEA	12	0	19	[0, 0, 0]	n/a	0	1	0	n/a	n/a	0.0	0	0	0	FR3	1	R1163T
2988.039	0.016	2134208	START	n/a	n/a	n/a	-999	0	19	[-999, -999, -999]	n/a	0	1	0	n/a	n/a	0.0	0	0	0	FR3	1	R1163T
2988.055	6.666	2134224	PROB	6.632	n/a	n/a	-999	0	19	[7, 1, 4]	14	0	1	0	n/a	n/a	0.0	0	0	0	FR3	1	R1163T
2994.721	5.536	2140889	PROB	5.511	n/a	n/a	-999	0	19	[5, 5, 3]	13	0	1	0	n/a	n/a	0.0	0	0	0	FR3	1	R1163T
3000.257	4.633	2146425	PROB	4.597	n/a	n/a	-999	0	19	[2, 2, 1]	4	0	1	0	n/a	n/a	0.0	0	0	0	FR3	1	R1163T
3004.89	4.869	2151058	PROB	4.869	n/a	n/a	-999	0	19	[1, 2, 2]	3	0	1	0	n/a	n/a	0.0	0	0	0	FR3	1	R1163T
3009.759	0.015	2155927	STOP	n/a	n/a	n/a	-999	0	19	[-999, -999, -999]	n/a	0	1	0	n/a	n/a	0.0	0	0	0	FR3	1	R1163T
3009.774	0.567	2155942	DISTRACT_END	n/a	n/a	n/a	-999	0	19	[0, 0, 0]	n/a	0	1	0	n/a	n/a	0.0	0	0	0	FR3	1	R1163T
3010.341	0.5	2156508	RETRIEVAL_ORIENT	n/a	n/a	n/a	-999	0	19	[0, 0, 0]	n/a	0	1	0	n/a	n/a	0.0	0	0	0	FR3	1	R1163T
3010.858	2.18	2157025	REC_START	n/a	n/a	n/a	-999	0	19	[0, 0, 0]	n/a	0	1	0	n/a	n/a	0.0	0	0	0	FR3	1	R1163T
3013.038	27.832	2159205	REC_WORD	2.18	n/a	SEA	12	1	19	[0, 0, 0]	n/a	0	1	0	n/a	n/a	0.0	0	0	0	FR3	1	R1163T
3040.87	11.146	2187036	REC_END	n/a	n/a	n/a	-999	0	19	[0, 0, 0]	n/a	0	1	0	n/a	n/a	0.0	0	0	0	FR3	1	R1163T
3052.016	0.5	2198181	TRIAL	n/a	n/a	n/a	-999	0	20	[0, 0, 0]	n/a	0	0	0	n/a	n/a	0.0	0	0	0	FR3	1	R1163T
3052.516	10.0	2198681	COUNTDOWN_START	n/a	n/a	n/a	-999	0	20	[0, 0, 0]	n/a	0	0	0	n/a	n/a	0.0	0	0	0	FR3	1	R1163T
3062.944	0.008	2209108	COUNTDOWN_END	n/a	n/a	n/a	-999	0	20	[0, 0, 0]	n/a	0	0	0	n/a	n/a	0.0	0	0	0	FR3	1	R1163T
3062.952	1.6	2209116	ORIENT	n/a	n/a	n/a	-999	0	20	[0, 0, 0]	n/a	0	0	0	n/a	n/a	0.0	0	0	0	FR3	1	R1163T
3064.568	2.083	2210732	ORIENT_OFF	n/a	n/a	n/a	-999	0	20	[0, 0, 0]	n/a	0	0	0	n/a	n/a	0.0	0	0	0	FR3	1	R1163T
3066.651	1.6	2212815	WORD	n/a	wordpools/wordpool.txt	YARD	1	0	20	[0, 0, 0]	n/a	0	0	0	n/a	n/a	0.0	0	0	0	FR3	1	R1163T
3068.269	0.867	2214433	WORD_OFF	n/a	n/a	YARD	1	0	20	[0, 0, 0]	n/a	0	0	0	n/a	n/a	0.0	0	0	0	FR3	1	R1163T
3069.136	1.6	2215300	WORD	n/a	wordpools/wordpool.txt	DITCH	2	0	20	[0, 0, 0]	n/a	0	0	0	n/a	n/a	0.0	0	0	0	FR3	1	R1163T
3070.752	0.8	2216916	WORD_OFF	n/a	n/a	DITCH	2	0	20	[0, 0, 0]	n/a	0	0	0	n/a	n/a	0.0	0	0	0	FR3	1	R1163T
3071.552	1.6	2217716	WORD	n/a	wordpools/wordpool.txt	DOCK	3	0	20	[0, 0, 0]	n/a	0	0	0	n/a	n/a	0.0	0	0	0	FR3	1	R1163T
3073.17	0.884	2219334	WORD_OFF	n/a	n/a	DOCK	3	0	20	[0, 0, 0]	n/a	0	0	0	n/a	n/a	0.0	0	0	0	FR3	1	R1163T
