onset	duration	sample	trial_type	response_time	stim_file	item_name	serialpos	recalled	list	test	answer	stimulation	stim_list	stim_duration	anode_label	cathode_label	amplitude	pulse_freq	n_pulses	pulse_width	experiment	session	subject
0.0	0.0	-1	STIM_ON	n/a	n/a	n/a	-999	0	-999	[0, 0, 0]	n/a	1	0	500	L7ST7	L7ST8	250.0	200	100	300	FR3	0	R1170J
0.5	13.39	-1	STIM_OFF	n/a	n/a	n/a	-999	0	-999	[0, 0, 0]	n/a	0	0	500	L7ST7	L7ST8	250.0	200	100	300	FR3	0	R1170J
13.89	0.0	-1	STIM_ON	n/a	n/a	n/a	-999	0	-999	[0, 0, 0]	n/a	1	0	500	L7ST7	L7ST8	250.0	200	100	300	FR3	0	R1170J
14.39	33.357	-1	STIM_OFF	n/a	n/a	n/a	-999	0	-999	[0, 0, 0]	n/a	0	0	500	L7ST7	L7ST8	250.0	200	100	300	FR3	0	R1170J
47.747	0.0	13041	INSTRUCT_START	n/a	n/a	n/a	-999	0	-999	[0, 0, 0]	n/a	0	0	0	n/a	n/a	0.0	0	0	0	FR3	0	R1170J
47.747	11.054	13041	INSTRUCT_END	n/a	n/a	n/a	-999	0	-999	[0, 0, 0]	n/a	0	0	0	n/a	n/a	0.0	0	0	0	FR3	0	R1170J
58.801	0.0	24095	SESS_START	n/a	n/a	n/a	-999	0	-999	[0, 0, 0]	n/a	0	0	0	n/a	n/a	0.0	0	0	0	FR3	0	R1170J
58.801	25.001	24095	MIC_TEST	n/a	n/a	n/a	-999	0	-999	[0, 0, 0]	n/a	0	0	0	n/a	n/a	0.0	0	0	0	FR3	0	R1170J
83.802	2.716	49096	PRACTICE_TRIAL	n/a	n/a	n/a	-999	0	-1	[0, 0, 0]	n/a	0	0	0	n/a	n/a	0.0	0	0	0	FR3	0	R1170J
86.518	10.0	51812	COUNTDOWN_START	n/a	n/a	n/a	-999	0	-1	[0, 0, 0]	n/a	0	0	0	n/a	n/a	0.0	0	0	0	FR3	0	R1170J
96.946	0.007	62240	COUNTDOWN_END	n/a	n/a	n/a	-999	0	-1	[0, 0, 0]	n/a	0	0	0	n/a	n/a	0.0	0	0	0	FR3	0	R1170J
96.953	1.6	62247	PRACTICE_ORIENT	n/a	n/a	n/a	-999	0	-1	[0, 0, 0]	n/a	0	0	0	n/a	n/a	0.0	0	0	0	FR3	0	R1170J
98.57	1.934	63864	PRACTICE_ORIENT_OFF	n/a	n/a	n/a	-999	0	-1	[0, 0, 0]	n/a	0	0	0	n/a	n/a	0.0	0	0	0	FR3	0	R1170J
100.504	1.6	65798	PRACTICE_WORD	n/a	n/a	RING	1	0	-1	[0, 0, 0]	n/a	0	0	0	n/a	n/a	0.0	0	0	0	FR3	0	R1170J
102.121	0.833	67415	PRACTICE_WORD_OFF	n/a	n/a	RING	-999	0	-1	[0, 0, 0]	n/a	0	0	0	n/a	n/a	0.0	0	0	0	FR3	0	R1170J
102.954	1.6	68248	PRACTICE_WORD	n/a	n/a	WAGON	2	0	-1	[0, 0, 0]	n/a	0	0	0	n/a	n/a	0.0	0	0	0	FR3	0	R1170J
104.571	0.917	69865	PRACTICE_WORD_OFF	n/a	n/a	WAGON	-999	0	-1	[0, 0, 0]	n/a	0	0	0	n/a	n/a	0.0	0	0	0	FR3	0	R1170J
105.488	1.6	70782	PRACTICE_WORD	n/a	n/a	BEAM	3	0	-1	[0, 0, 0]	n/a	0	0	0	n/a	n/a	0.0	0	0	0	FR3	0	R1170J
107.106	0.832	72399	PRACTICE_WORD_OFF	n/a	n/a	BEAM	-999	0	-1	[0, 0, 0]	n/a	0	0	0	n/a	n/a	0.0	0	0	0	FR3	0	R1170J
107.938	1.6	73231	PRACTICE_WORD	n/a	n/a	WATCH	4	0	-1	[0, 0, 0]	n/a	0	0	0	n/a	n/a	0.0	0	0	0	FR3	0	R1170J
109.555	0.85	74848	PRACTICE_WORD_OFF	n/a	n/a	WATCH	-999	0	-1	[0, 0, 0]	n/a	0	0	0	n/a	n/a	0.0	0	0	0	FR3	0	R1170J
110.405	1.6	75698	PRACTICE_WORD	n/a	n/a	COTTON	5	0	-1	[0, 0, 0]	n/a	0	0	0	n/a	n/a	0.0	0	0	0	FR3	0	R1170J
112.022	0.983	77315	PRACTICE_WORD_OFF	n/a	n/a	COTTON	-999	0	-1	[0, 0, 0]	n/a	0	0	0	n/a	n/a	0.0	0	0	0	FR3	0	R1170J
113.005	1.6	78298	PRACTICE_WORD	n/a	n/a	ATTIC	6	0	-1	[0, 0, 0]	n/a	0	0	0	n/a	n/a	0.0	0	0	0	FR3	0	R1170J
114.622	0.8	79915	PRACTICE_WORD_OFF	n/a	n/a	ATTIC	-999	0	-1	[0, 0, 0]	n/a	0	0	0	n/a	n/a	0.0	0	0	0	FR3	0	R1170J
115.422	1.6	80715	PRACTICE_WORD	n/a	n/a	CAMEL	7	0	-1	[0, 0, 0]	n/a	0	0	0	n/a	n/a	0.0	0	0	0	FR3	0	R1170J
117.039	0.917	82332	PRACTICE_WORD_OFF	n/a	n/a	CAMEL	-999	0	-1	[0, 0, 0]	n/a	0	0	0	n/a	n/a	0.0	0	0	0	FR3	0	R1170J
117.956	1.6	83249	PRACTICE_WORD	n/a	n/a	CHEST	8	0	-1	[0, 0, 0]	n/a	0	0	0	n/a	n/a	0.0	0	0	0	FR3	0	R1170J
119.573	0.916	84866	PRACTICE_WORD_OFF	n/a	n/a	CHEST	-999	0	-1	[0, 0, 0]	n/a	0	0	0	n/a	n/a	0.0	0	0	0	FR3	0	R1170J
120.489	1.6	85782	PRACTICE_WORD	n/a	n/a	IRON	9	0	-1	[0, 0, 0]	n/a	0	0	0	n/a	n/a	0.0	0	0	0	FR3	0	R1170J
122.09	0.95	87383	PRACTICE_WORD_OFF	n/a	n/a	IRON	-999	0	-1	[0, 0, 0]	n/a	0	0	0	n/a	n/a	0.0	0	0	0	FR3	0	R1170J
123.04	1.6	88333	PRACTICE_WORD	n/a	n/a	RHINO	10	0	-1	[0, 0, 0]	n/a	0	0	0	n/a	n/a	0.0	0	0	0	FR3	0	R1170J
124.657	0.933	89950	PRACTICE_WORD_OFF	n/a	n/a	RHINO	-999	0	-1	[0, 0, 0]	n/a	0	0	0	n/a	n/a	0.0	0	0	0	FR3	0	R1170J
125.59	1.6	90883	PRACTICE_WORD	n/a	n/a	FLOOD	11	0	-1	[0, 0, 0]	n/a	0	0	0	n/a	n/a	0.0	0	0	0	FR3	0	R1170J
127.208	1.016	92501	PRACTICE_WORD_OFF	n/a	n/a	FLOOD	-999	0	-1	[0, 0, 0]	n/a	0	0	0	n/a	n/a	0.0	0	0	0	FR3	0	R1170J
128.224	1.6	93517	PRACTICE_WORD	n/a	n/a	TONGUE	12	0	-1	[0, 0, 0]	n/a	0	0	0	n/a	n/a	0.0	0	0	0	FR3	0	R1170J
129.841	0.0	95134	PRACTICE_WORD_OFF	n/a	n/a	TONGUE	-999	0	-1	[0, 0, 0]	n/a	0	0	0	n/a	n/a	0.0	0	0	0	FR3	0	R1170J
129.841	0.0	95134	DISTRACT_START	n/a	n/a	n/a	-999	0	-1	[0, 0, 0]	n/a	0	0	0	n/a	n/a	0.0	0	0	0	FR3	0	R1170J
129.841	0.016	95134	START	n/a	n/a	n/a	-999	0	-1	[-999, -999, -999]	n/a	0	0	0	n/a	n/a	0.0	0	0	0	FR3	0	R1170J
129.857	4.968	95150	PROB	4.935	n/a	n/a	-999	0	-1	[3, 1, 4]	8	0	0	0	n/a	n/a	0.0	0	0	0	FR3	0	R1170J
134.825	4.683	100118	PROB	4.655	n/a	n/a	-999	0	-1	[9, 7, 8]	24	0	0	0	n/a	n/a	0.0	0	0	0	FR3	0	R1170J
139.508	2.351	104801	PROB	2.323	n/a	n/a	-999	0	-1	[2, 2, 1]	5	0	0	0	n/a	n/a	0.0	0	0	0	FR3	0	R1170J
141.859	5.302	107152	PROB	5.278	n/a	n/a	-999	0	-1	[9, 8, 5]	23	0	0	0	n/a	n/a	0.0	0	0	0	FR3	0	R1170J
147.161	4.325	112454	PROB	4.325	n/a	n/a	-999	0	-1	[6, 1, 3]	10	0	0	0	n/a	n/a	0.0	0	0	0	FR3	0	R1170J
151.486	0.007	116779	STOP	n/a	n/a	n/a	-999	0	-1	[-999, -999, -999]	n/a	0	0	0	n/a	n/a	0.0	0	0	0	FR3	0	R1170J
151.493	0.685	116786	DISTRACT_END	n/a	n/a	n/a	-999	0	-1	[0, 0, 0]	n/a	0	0	0	n/a	n/a	0.0	0	0	0	FR3	0	R1170J
152.178	0.5	117471	RETRIEVAL_ORIENT	n/a	n/a	n/a	-999	0	-1	[0, 0, 0]	n/a	0	0	0	n/a	n/a	0.0	0	0	0	FR3	0	R1170J
152.694	30.014	117987	PRACTICE_REC_START	n/a	n/a	n/a	-999	0	-1	[0, 0, 0]	n/a	0	0	0	n/a	n/a	0.0	0	0	0	FR3	0	R1170J
182.708	12.375	148001	PRACTICE_REC_END	n/a	n/a	n/a	-999	0	-1	[0, 0, 0]	n/a	0	0	0	n/a	n/a	0.0	0	0	0	FR3	0	R1170J
195.083	0.5	160376	TRIAL	n/a	n/a	n/a	-999	0	1	[0, 0, 0]	n/a	0	0	0	n/a	n/a	0.0	0	0	0	FR3	0	R1170J
195.583	10.0	160876	COUNTDOWN_START	n/a	n/a	n/a	-999	0	1	[0, 0, 0]	n/a	0	0	0	n/a	n/a	0.0	0	0	0	FR3	0	R1170J
206.011	0.006	171304	COUNTDOWN_END	n/a	n/a	n/a	-999	0	1	[0, 0, 0]	n/a	0	0	0	n/a	n/a	0.0	0	0	0	FR3	0	R1170J
206.017	1.6	171310	ORIENT	n/a	n/a	n/a	-999	0	1	[0, 0, 0]	n/a	0	0	0	n/a	n/a	0.0	0	0	0	FR3	0	R1170J
207.634	2.0	172927	ORIENT_OFF	n/a	n/a	n/a	-999	0	1	[0, 0, 0]	n/a	0	0	0	n/a	n/a	0.0	0	0	0	FR3	0	R1170J
209.634	1.6	174927	WORD	n/a	wordpools/wordpool.txt	WHEEL	1	0	1	[0, 0, 0]	n/a	0	0	0	n/a	n/a	0.0	0	0	0	FR3	0	R1170J
211.251	0.767	176544	WORD_OFF	n/a	n/a	WHEEL	1	0	1	[0, 0, 0]	n/a	0	0	0	n/a	n/a	0.0	0	0	0	FR3	0	R1170J
212.018	1.6	177311	WORD	n/a	wordpools/wordpool.txt	DEER	2	0	1	[0, 0, 0]	n/a	0	0	0	n/a	n/a	0.0	0	0	0	FR3	0	R1170J
213.635	0.867	178928	WORD_OFF	n/a	n/a	DEER	2	0	1	[0, 0, 0]	n/a	0	0	0	n/a	n/a	0.0	0	0	0	FR3	0	R1170J
214.502	1.6	179795	WORD	n/a	wordpools/wordpool.txt	STEAM	3	0	1	[0, 0, 0]	n/a	0	0	0	n/a	n/a	0.0	0	0	0	FR3	0	R1170J
216.119	0.866	181412	WORD_OFF	n/a	n/a	STEAM	3	0	1	[0, 0, 0]	n/a	0	0	0	n/a	n/a	0.0	0	0	0	FR3	0	R1170J
216.985	1.6	182278	WORD	n/a	wordpools/wordpool.txt	PRINCE	4	0	1	[0, 0, 0]	n/a	0	0	0	n/a	n/a	0.0	0	0	0	FR3	0	R1170J
218.602	0.833	183895	WORD_OFF	n/a	n/a	PRINCE	4	0	1	[0, 0, 0]	n/a	0	0	0	n/a	n/a	0.0	0	0	0	FR3	0	R1170J
219.435	1.6	184728	WORD	n/a	wordpools/wordpool.txt	PEA	5	0	1	[0, 0, 0]	n/a	0	0	0	n/a	n/a	0.0	0	0	0	FR3	0	R1170J
221.052	0.95	186345	WORD_OFF	n/a	n/a	PEA	5	0	1	[0, 0, 0]	n/a	0	0	0	n/a	n/a	0.0	0	0	0	FR3	0	R1170J
222.002	1.6	187295	WORD	n/a	wordpools/wordpool.txt	SEA	6	0	1	[0, 0, 0]	n/a	0	0	0	n/a	n/a	0.0	0	0	0	FR3	0	R1170J
223.619	0.884	188912	WORD_OFF	n/a	n/a	SEA	6	0	1	[0, 0, 0]	n/a	0	0	0	n/a	n/a	0.0	0	0	0	FR3	0	R1170J
224.503	1.6	189795	WORD	n/a	wordpools/wordpool.txt	WEB	7	0	1	[0, 0, 0]	n/a	0	0	0	n/a	n/a	0.0	0	0	0	FR3	0	R1170J
226.104	1.017	191396	WORD_OFF	n/a	n/a	WEB	7	0	1	[0, 0, 0]	n/a	0	0	0	n/a	n/a	0.0	0	0	0	FR3	0	R1170J
227.121	1.6	192413	WORD	n/a	wordpools/wordpool.txt	FOG	8	0	1	[0, 0, 0]	n/a	0	0	0	n/a	n/a	0.0	0	0	0	FR3	0	R1170J
228.737	0.966	194029	WORD_OFF	n/a	n/a	FOG	8	0	1	[0, 0, 0]	n/a	0	0	0	n/a	n/a	0.0	0	0	0	FR3	0	R1170J
229.703	1.6	194995	WORD	n/a	wordpools/wordpool.txt	ICE	9	0	1	[0, 0, 0]	n/a	0	0	0	n/a	n/a	0.0	0	0	0	FR3	0	R1170J
231.32	0.917	196612	WORD_OFF	n/a	n/a	ICE	9	0	1	[0, 0, 0]	n/a	0	0	0	n/a	n/a	0.0	0	0	0	FR3	0	R1170J
232.237	1.6	197529	WORD	n/a	wordpools/wordpool.txt	STORM	10	0	1	[0, 0, 0]	n/a	0	0	0	n/a	n/a	0.0	0	0	0	FR3	0	R1170J
233.854	0.934	199146	WORD_OFF	n/a	n/a	STORM	10	0	1	[0, 0, 0]	n/a	0	0	0	n/a	n/a	0.0	0	0	0	FR3	0	R1170J
234.788	1.6	200080	WORD	n/a	wordpools/wordpool.txt	BRIDGE	11	0	1	[0, 0, 0]	n/a	0	0	0	n/a	n/a	0.0	0	0	0	FR3	0	R1170J
236.404	0.785	201696	WORD_OFF	n/a	n/a	BRIDGE	11	0	1	[0, 0, 0]	n/a	0	0	0	n/a	n/a	0.0	0	0	0	FR3	0	R1170J
237.189	1.6	202481	WORD	n/a	wordpools/wordpool.txt	SAIL	12	0	1	[0, 0, 0]	n/a	0	0	0	n/a	n/a	0.0	0	0	0	FR3	0	R1170J
238.805	0.0	204097	WORD_OFF	n/a	n/a	SAIL	12	0	1	[0, 0, 0]	n/a	0	0	0	n/a	n/a	0.0	0	0	0	FR3	0	R1170J
238.805	0.001	204097	DISTRACT_START	n/a	n/a	n/a	-999	0	1	[0, 0, 0]	n/a	0	0	0	n/a	n/a	0.0	0	0	0	FR3	0	R1170J
238.806	0.016	204098	START	n/a	n/a	n/a	-999	0	1	[-999, -999, -999]	n/a	0	0	0	n/a	n/a	0.0	0	0	0	FR3	0	R1170J
238.822	4.55	204114	PROB	4.526	n/a	n/a	-999	0	1	[9, 4, 4]	17	0	0	0	n/a	n/a	0.0	0	0	0	FR3	0	R1170J
243.372	3.45	208664	PROB	3.416	n/a	n/a	-999	0	1	[9, 1, 9]	19	0	0	0	n/a	n/a	0.0	0	0	0	FR3	0	R1170J
246.822	3.151	212114	PROB	3.125	n/a	n/a	-999	0	1	[1, 4, 3]	8	0	0	0	n/a	n/a	0.0	0	0	0	FR3	0	R1170J
249.973	4.8	215265	PROB	4.774	n/a	n/a	-999	0	1	[8, 7, 5]	20	0	0	0	n/a	n/a	0.0	0	0	0	FR3	0	R1170J
254.773	2.984	220065	PROB	2.957	n/a	n/a	-999	0	1	[1, 5, 6]	12	0	0	0	n/a	n/a	0.0	0	0	0	FR3	0	R1170J
257.757	6.958	223049	PROB	6.958	n/a	n/a	-999	0	1	[9, 2, 4]	15	0	0	0	n/a	n/a	0.0	0	0	0	FR3	0	R1170J
264.715	0.01	230007	STOP	n/a	n/a	n/a	-999	0	1	[-999, -999, -999]	n/a	0	0	0	n/a	n/a	0.0	0	0	0	FR3	0	R1170J
264.725	0.567	230017	DISTRACT_END	n/a	n/a	n/a	-999	0	1	[0, 0, 0]	n/a	0	0	0	n/a	n/a	0.0	0	0	0	FR3	0	R1170J
265.292	0.5	230584	RETRIEVAL_ORIENT	n/a	n/a	n/a	-999	0	1	[0, 0, 0]	n/a	0	0	0	n/a	n/a	0.0	0	0	0	FR3	0	R1170J
265.809	30.0	231101	REC_START	n/a	n/a	n/a	-999	0	1	[0, 0, 0]	n/a	0	0	0	n/a	n/a	0.0	0	0	0	FR3	0	R1170J
295.809	0.011	261101	REC_WORD_VV	30.0	n/a	<>	-999	0	1	[0, 0, 0]	n/a	0	0	0	n/a	n/a	0.0	0	0	0	FR3	0	R1170J
295.82	5.426	261112	REC_END	n/a	n/a	n/a	-999	0	1	[0, 0, 0]	n/a	0	0	0	n/a	n/a	0.0	0	0	0	FR3	0	R1170J
301.246	0.5	266538	TRIAL	n/a	n/a	n/a	-999	0	2	[0, 0, 0]	n/a	0	0	0	n/a	n/a	0.0	0	0	0	FR3	0	R1170J
301.746	10.0	267038	COUNTDOWN_START	n/a	n/a	n/a	-999	0	2	[0, 0, 0]	n/a	0	0	0	n/a	n/a	0.0	0	0	0	FR3	0	R1170J
312.174	0.008	277466	COUNTDOWN_END	n/a	n/a	n/a	-999	0	2	[0, 0, 0]	n/a	0	0	0	n/a	n/a	0.0	0	0	0	FR3	0	R1170J
312.182	1.6	277474	ORIENT	n/a	n/a	n/a	-999	0	2	[0, 0, 0]	n/a	0	0	0	n/a	n/a	0.0	0	0	0	FR3	0	R1170J
313.798	1.95	279090	ORIENT_OFF	n/a	n/a	n/a	-999	0	2	[0, 0, 0]	n/a	0	0	0	n/a	n/a	0.0	0	0	0	FR3	0	R1170J
315.748	1.6	281040	WORD	n/a	wordpools/wordpool.txt	FARM	1	1	2	[0, 0, 0]	n/a	0	0	0	n/a	n/a	0.0	0	0	0	FR3	0	R1170J
317.365	0.768	282657	WORD_OFF	n/a	n/a	FARM	1	0	2	[0, 0, 0]	n/a	0	0	0	n/a	n/a	0.0	0	0	0	FR3	0	R1170J
318.133	1.6	283425	WORD	n/a	wordpools/wordpool.txt	LAND	2	0	2	[0, 0, 0]	n/a	0	0	0	n/a	n/a	0.0	0	0	0	FR3	0	R1170J
319.748	0.917	285040	WORD_OFF	n/a	n/a	LAND	2	0	2	[0, 0, 0]	n/a	0	0	0	n/a	n/a	0.0	0	0	0	FR3	0	R1170J
320.665	1.6	285957	WORD	n/a	wordpools/wordpool.txt	SCHOOL	3	0	2	[0, 0, 0]	n/a	0	0	0	n/a	n/a	0.0	0	0	0	FR3	0	R1170J
322.282	0.901	287574	WORD_OFF	n/a	n/a	SCHOOL	3	0	2	[0, 0, 0]	n/a	0	0	0	n/a	n/a	0.0	0	0	0	FR3	0	R1170J
323.183	1.6	288475	WORD	n/a	wordpools/wordpool.txt	BRANCH	4	0	2	[0, 0, 0]	n/a	0	0	0	n/a	n/a	0.0	0	0	0	FR3	0	R1170J
324.799	0.784	290091	WORD_OFF	n/a	n/a	BRANCH	4	0	2	[0, 0, 0]	n/a	0	0	0	n/a	n/a	0.0	0	0	0	FR3	0	R1170J
325.583	1.6	290875	WORD	n/a	wordpools/wordpool.txt	CHIN	5	1	2	[0, 0, 0]	n/a	0	0	0	n/a	n/a	0.0	0	0	0	FR3	0	R1170J
327.2	0.951	292492	WORD_OFF	n/a	n/a	CHIN	5	0	2	[0, 0, 0]	n/a	0	0	0	n/a	n/a	0.0	0	0	0	FR3	0	R1170J
328.151	1.6	293443	WORD	n/a	wordpools/wordpool.txt	OAR	6	0	2	[0, 0, 0]	n/a	0	0	0	n/a	n/a	0.0	0	0	0	FR3	0	R1170J
329.766	0.867	295058	WORD_OFF	n/a	n/a	OAR	6	0	2	[0, 0, 0]	n/a	0	0	0	n/a	n/a	0.0	0	0	0	FR3	0	R1170J
330.633	1.6	295925	WORD	n/a	wordpools/wordpool.txt	CHIEF	7	0	2	[0, 0, 0]	n/a	0	0	0	n/a	n/a	0.0	0	0	0	FR3	0	R1170J
332.25	0.783	297542	WORD_OFF	n/a	n/a	CHIEF	7	0	2	[0, 0, 0]	n/a	0	0	0	n/a	n/a	0.0	0	0	0	FR3	0	R1170J
333.033	1.6	298325	WORD	n/a	wordpools/wordpool.txt	LEAF	8	0	2	[0, 0, 0]	n/a	0	0	0	n/a	n/a	0.0	0	0	0	FR3	0	R1170J
334.65	0.834	299942	WORD_OFF	n/a	n/a	LEAF	8	0	2	[0, 0, 0]	n/a	0	0	0	n/a	n/a	0.0	0	0	0	FR3	0	R1170J
335.484	1.6	300776	WORD	n/a	wordpools/wordpool.txt	BAND	9	0	2	[0, 0, 0]	n/a	0	0	0	n/a	n/a	0.0	0	0	0	FR3	0	R1170J
337.102	0.967	302394	WORD_OFF	n/a	n/a	BAND	9	0	2	[0, 0, 0]	n/a	0	0	0	n/a	n/a	0.0	0	0	0	FR3	0	R1170J
338.069	1.6	303361	WORD	n/a	wordpools/wordpool.txt	PALM	10	0	2	[0, 0, 0]	n/a	0	0	0	n/a	n/a	0.0	0	0	0	FR3	0	R1170J
339.684	0.767	304976	WORD_OFF	n/a	n/a	PALM	10	0	2	[0, 0, 0]	n/a	0	0	0	n/a	n/a	0.0	0	0	0	FR3	0	R1170J
340.451	1.6	305743	WORD	n/a	wordpools/wordpool.txt	BENCH	11	0	2	[0, 0, 0]	n/a	0	0	0	n/a	n/a	0.0	0	0	0	FR3	0	R1170J
342.069	0.899	307360	WORD_OFF	n/a	n/a	BENCH	11	0	2	[0, 0, 0]	n/a	0	0	0	n/a	n/a	0.0	0	0	0	FR3	0	R1170J
342.968	1.6	308259	WORD	n/a	wordpools/wordpool.txt	FOOD	12	0	2	[0, 0, 0]	n/a	0	0	0	n/a	n/a	0.0	0	0	0	FR3	0	R1170J
344.585	0.0	309876	WORD_OFF	n/a	n/a	FOOD	12	0	2	[0, 0, 0]	n/a	0	0	0	n/a	n/a	0.0	0	0	0	FR3	0	R1170J
344.585	0.001	309876	DISTRACT_START	n/a	n/a	n/a	-999	0	2	[0, 0, 0]	n/a	0	0	0	n/a	n/a	0.0	0	0	0	FR3	0	R1170J
344.586	0.016	309877	START	n/a	n/a	n/a	-999	0	2	[-999, -999, -999]	n/a	0	0	0	n/a	n/a	0.0	0	0	0	FR3	0	R1170J
344.602	6.167	309893	PROB	6.142	n/a	n/a	-999	0	2	[3, 1, 9]	13	0	0	0	n/a	n/a	0.0	0	0	0	FR3	0	R1170J
350.769	3.335	316060	PROB	3.303	n/a	n/a	-999	0	2	[7, 7, 4]	18	0	0	0	n/a	n/a	0.0	0	0	0	FR3	0	R1170J
354.104	3.333	319395	PROB	3.295	n/a	n/a	-999	0	2	[1, 2, 6]	9	0	0	0	n/a	n/a	0.0	0	0	0	FR3	0	R1170J
357.437	6.267	322728	PROB	6.233	n/a	n/a	-999	0	2	[7, 6, 5]	18	0	0	0	n/a	n/a	0.0	0	0	0	FR3	0	R1170J
363.704	3.198	328995	PROB	3.198	n/a	n/a	-999	0	2	[4, 4, 1]	9	0	0	0	n/a	n/a	0.0	0	0	0	FR3	0	R1170J
366.902	0.019	332193	STOP	n/a	n/a	n/a	-999	0	2	[-999, -999, -999]	n/a	0	0	0	n/a	n/a	0.0	0	0	0	FR3	0	R1170J
366.921	0.533	332212	DISTRACT_END	n/a	n/a	n/a	-999	0	2	[0, 0, 0]	n/a	0	0	0	n/a	n/a	0.0	0	0	0	FR3	0	R1170J
367.454	0.5	332745	RETRIEVAL_ORIENT	n/a	n/a	n/a	-999	0	2	[0, 0, 0]	n/a	0	0	0	n/a	n/a	0.0	0	0	0	FR3	0	R1170J
367.973	0.586	333264	REC_START	n/a	n/a	n/a	-999	0	2	[0, 0, 0]	n/a	0	0	0	n/a	n/a	0.0	0	0	0	FR3	0	R1170J
368.559	1.037	333850	REC_WORD	0.586	n/a	CHIN	5	1	2	[0, 0, 0]	n/a	0	0	0	n/a	n/a	0.0	0	0	0	FR3	0	R1170J
369.596	0.778	334887	REC_WORD	1.623	n/a	WAGON	-999	0	2	[0, 0, 0]	n/a	0	0	0	n/a	n/a	0.0	0	0	0	FR3	0	R1170J
370.374	9.546	335665	REC_WORD	2.401	n/a	FARM	1	1	2	[0, 0, 0]	n/a	0	0	0	n/a	n/a	0.0	0	0	0	FR3	0	R1170J
379.92	18.063	345211	REC_WORD	11.947	n/a	BLIZZARD	-999	0	2	[0, 0, 0]	n/a	0	0	0	n/a	n/a	0.0	0	0	0	FR3	0	R1170J
397.983	5.094	363274	REC_END	n/a	n/a	n/a	-999	0	2	[0, 0, 0]	n/a	0	0	0	n/a	n/a	0.0	0	0	0	FR3	0	R1170J
403.077	0.5	368368	TRIAL	n/a	n/a	n/a	-999	0	3	[0, 0, 0]	n/a	0	0	0	n/a	n/a	0.0	0	0	0	FR3	0	R1170J
403.577	10.0	368868	COUNTDOWN_START	n/a	n/a	n/a	-999	0	3	[0, 0, 0]	n/a	0	0	0	n/a	n/a	0.0	0	0	0	FR3	0	R1170J
414.005	0.005	379296	COUNTDOWN_END	n/a	n/a	n/a	-999	0	3	[0, 0, 0]	n/a	0	0	0	n/a	n/a	0.0	0	0	0	FR3	0	R1170J
414.01	1.6	379301	ORIENT	n/a	n/a	n/a	-999	0	3	[0, 0, 0]	n/a	0	0	0	n/a	n/a	0.0	0	0	0	FR3	0	R1170J
415.627	1.951	380918	ORIENT_OFF	n/a	n/a	n/a	-999	0	3	[0, 0, 0]	n/a	0	0	0	n/a	n/a	0.0	0	0	0	FR3	0	R1170J
417.578	1.6	382869	WORD	n/a	wordpools/wordpool.txt	POND	1	0	3	[0, 0, 0]	n/a	0	0	0	n/a	n/a	0.0	0	0	0	FR3	0	R1170J
419.195	0.917	384486	WORD_OFF	n/a	n/a	POND	1	0	3	[0, 0, 0]	n/a	0	0	0	n/a	n/a	0.0	0	0	0	FR3	0	R1170J
420.112	1.6	385403	WORD	n/a	wordpools/wordpool.txt	SHIELD	2	0	3	[0, 0, 0]	n/a	0	0	0	n/a	n/a	0.0	0	0	0	FR3	0	R1170J
421.728	0.833	387019	WORD_OFF	n/a	n/a	SHIELD	2	0	3	[0, 0, 0]	n/a	0	0	0	n/a	n/a	0.0	0	0	0	FR3	0	R1170J
422.561	1.6	387852	WORD	n/a	wordpools/wordpool.txt	CALF	3	0	3	[0, 0, 0]	n/a	0	0	0	n/a	n/a	0.0	0	0	0	FR3	0	R1170J
424.179	0.866	389470	WORD_OFF	n/a	n/a	CALF	3	0	3	[0, 0, 0]	n/a	0	0	0	n/a	n/a	0.0	0	0	0	FR3	0	R1170J
425.045	1.6	390336	WORD	n/a	wordpools/wordpool.txt	ZOO	4	1	3	[0, 0, 0]	n/a	0	0	0	n/a	n/a	0.0	0	0	0	FR3	0	R1170J
426.662	0.834	391953	WORD_OFF	n/a	n/a	ZOO	4	0	3	[0, 0, 0]	n/a	0	0	0	n/a	n/a	0.0	0	0	0	FR3	0	R1170J
427.496	1.6	392787	WORD	n/a	wordpools/wordpool.txt	GEESE	5	1	3	[0, 0, 0]	n/a	0	0	0	n/a	n/a	0.0	0	0	0	FR3	0	R1170J
429.113	0.916	394404	WORD_OFF	n/a	n/a	GEESE	5	0	3	[0, 0, 0]	n/a	0	0	0	n/a	n/a	0.0	0	0	0	FR3	0	R1170J
430.029	1.6	395320	WORD	n/a	wordpools/wordpool.txt	JEEP	6	0	3	[0, 0, 0]	n/a	0	0	0	n/a	n/a	0.0	0	0	0	FR3	0	R1170J
431.646	1.0	396937	WORD_OFF	n/a	n/a	JEEP	6	0	3	[0, 0, 0]	n/a	0	0	0	n/a	n/a	0.0	0	0	0	FR3	0	R1170J
432.646	1.6	397937	WORD	n/a	wordpools/wordpool.txt	LAKE	7	0	3	[0, 0, 0]	n/a	0	0	0	n/a	n/a	0.0	0	0	0	FR3	0	R1170J
434.263	0.818	399554	WORD_OFF	n/a	n/a	LAKE	7	0	3	[0, 0, 0]	n/a	0	0	0	n/a	n/a	0.0	0	0	0	FR3	0	R1170J
435.081	1.6	400372	WORD	n/a	wordpools/wordpool.txt	BEAK	8	0	3	[0, 0, 0]	n/a	0	0	0	n/a	n/a	0.0	0	0	0	FR3	0	R1170J
436.697	0.8	401988	WORD_OFF	n/a	n/a	BEAK	8	0	3	[0, 0, 0]	n/a	0	0	0	n/a	n/a	0.0	0	0	0	FR3	0	R1170J
437.497	1.6	402788	WORD	n/a	wordpools/wordpool.txt	CLIFF	9	0	3	[0, 0, 0]	n/a	0	0	0	n/a	n/a	0.0	0	0	0	FR3	0	R1170J
439.114	0.967	404405	WORD_OFF	n/a	n/a	CLIFF	9	0	3	[0, 0, 0]	n/a	0	0	0	n/a	n/a	0.0	0	0	0	FR3	0	R1170J
440.081	1.6	405372	WORD	n/a	wordpools/wordpool.txt	ROCK	10	0	3	[0, 0, 0]	n/a	0	0	0	n/a	n/a	0.0	0	0	0	FR3	0	R1170J
441.697	1.017	406988	WORD_OFF	n/a	n/a	ROCK	10	0	3	[0, 0, 0]	n/a	0	0	0	n/a	n/a	0.0	0	0	0	FR3	0	R1170J
442.714	1.6	408005	WORD	n/a	wordpools/wordpool.txt	PARK	11	0	3	[0, 0, 0]	n/a	0	0	0	n/a	n/a	0.0	0	0	0	FR3	0	R1170J
444.331	0.834	409622	WORD_OFF	n/a	n/a	PARK	11	0	3	[0, 0, 0]	n/a	0	0	0	n/a	n/a	0.0	0	0	0	FR3	0	R1170J
445.165	1.6	410456	WORD	n/a	wordpools/wordpool.txt	TRUCK	12	0	3	[0, 0, 0]	n/a	0	0	0	n/a	n/a	0.0	0	0	0	FR3	0	R1170J
446.781	0.0	412072	WORD_OFF	n/a	n/a	TRUCK	12	0	3	[0, 0, 0]	n/a	0	0	0	n/a	n/a	0.0	0	0	0	FR3	0	R1170J
446.781	0.001	412072	DISTRACT_START	n/a	n/a	n/a	-999	0	3	[0, 0, 0]	n/a	0	0	0	n/a	n/a	0.0	0	0	0	FR3	0	R1170J
446.782	0.016	412073	START	n/a	n/a	n/a	-999	0	3	[-999, -999, -999]	n/a	0	0	0	n/a	n/a	0.0	0	0	0	FR3	0	R1170J
446.798	4.667	412089	PROB	4.628	n/a	n/a	-999	0	3	[1, 5, 7]	13	0	0	0	n/a	n/a	0.0	0	0	0	FR3	0	R1170J
451.465	6.134	416756	PROB	6.098	n/a	n/a	-999	0	3	[7, 5, 5]	17	0	0	0	n/a	n/a	0.0	0	0	0	FR3	0	R1170J
457.599	2.884	422890	PROB	2.859	n/a	n/a	-999	0	3	[3, 8, 2]	13	0	0	0	n/a	n/a	0.0	0	0	0	FR3	0	R1170J
460.483	3.551	425773	PROB	3.519	n/a	n/a	-999	0	3	[8, 5, 2]	15	0	0	0	n/a	n/a	0.0	0	0	0	FR3	0	R1170J
464.034	4.944	429324	PROB	4.944	n/a	n/a	-999	0	3	[1, 9, 2]	12	0	0	0	n/a	n/a	0.0	0	0	0	FR3	0	R1170J
468.978	0.006	434268	STOP	n/a	n/a	n/a	-999	0	3	[-999, -999, -999]	n/a	0	0	0	n/a	n/a	0.0	0	0	0	FR3	0	R1170J
468.984	0.583	434274	DISTRACT_END	n/a	n/a	n/a	-999	0	3	[0, 0, 0]	n/a	0	0	0	n/a	n/a	0.0	0	0	0	FR3	0	R1170J
469.567	0.5	434857	RETRIEVAL_ORIENT	n/a	n/a	n/a	-999	0	3	[0, 0, 0]	n/a	0	0	0	n/a	n/a	0.0	0	0	0	FR3	0	R1170J
470.086	0.52	435376	REC_START	n/a	n/a	n/a	-999	0	3	[0, 0, 0]	n/a	0	0	0	n/a	n/a	0.0	0	0	0	FR3	0	R1170J
470.606	1.226	435896	REC_WORD	0.52	n/a	ZOO	4	1	3	[0, 0, 0]	n/a	0	0	0	n/a	n/a	0.0	0	0	0	FR3	0	R1170J
471.832	14.706	437122	REC_WORD	1.746	n/a	GEESE	5	1	3	[0, 0, 0]	n/a	0	0	0	n/a	n/a	0.0	0	0	0	FR3	0	R1170J
486.538	13.56	451828	REC_WORD	16.452	n/a	BEACH	-999	0	3	[0, 0, 0]	n/a	0	0	0	n/a	n/a	0.0	0	0	0	FR3	0	R1170J
500.098	5.959	465388	REC_END	n/a	n/a	n/a	-999	0	3	[0, 0, 0]	n/a	0	0	0	n/a	n/a	0.0	0	0	0	FR3	0	R1170J
506.057	0.5	471347	TRIAL	n/a	n/a	n/a	-999	0	4	[0, 0, 0]	n/a	0	0	0	n/a	n/a	0.0	0	0	0	FR3	0	R1170J
506.557	10.0	471847	COUNTDOWN_START	n/a	n/a	n/a	-999	0	4	[0, 0, 0]	n/a	0	0	0	n/a	n/a	0.0	0	0	0	FR3	0	R1170J
516.985	0.005	482275	COUNTDOWN_END	n/a	n/a	n/a	-999	0	4	[0, 0, 0]	n/a	0	0	0	n/a	n/a	0.0	0	0	0	FR3	0	R1170J
516.99	1.6	482280	ORIENT	n/a	n/a	n/a	-999	0	4	[0, 0, 0]	n/a	0	0	0	n/a	n/a	0.0	0	0	0	FR3	0	R1170J
518.607	2.15	483897	ORIENT_OFF	n/a	n/a	n/a	-999	0	4	[0, 0, 0]	n/a	0	0	0	n/a	n/a	0.0	0	0	0	FR3	0	R1170J
520.757	1.6	486047	WORD	n/a	wordpools/wordpool.txt	PIE	1	0	4	[0, 0, 0]	n/a	0	0	0	n/a	n/a	0.0	0	0	0	FR3	0	R1170J
522.374	0.818	487664	WORD_OFF	n/a	n/a	PIE	1	0	4	[0, 0, 0]	n/a	0	0	0	n/a	n/a	0.0	0	0	0	FR3	0	R1170J
523.192	1.6	488482	WORD	n/a	wordpools/wordpool.txt	CLOWN	2	1	4	[0, 0, 0]	n/a	0	0	0	n/a	n/a	0.0	0	0	0	FR3	0	R1170J
524.808	0.9	490098	WORD_OFF	n/a	n/a	CLOWN	2	0	4	[0, 0, 0]	n/a	0	0	0	n/a	n/a	0.0	0	0	0	FR3	0	R1170J
525.708	1.6	490998	WORD	n/a	wordpools/wordpool.txt	RAIN	3	0	4	[0, 0, 0]	n/a	0	0	0	n/a	n/a	0.0	0	0	0	FR3	0	R1170J
527.325	1.017	492615	WORD_OFF	n/a	n/a	RAIN	3	0	4	[0, 0, 0]	n/a	0	0	0	n/a	n/a	0.0	0	0	0	FR3	0	R1170J
528.342	1.6	493632	WORD	n/a	wordpools/wordpool.txt	BLUSH	4	0	4	[0, 0, 0]	n/a	0	0	0	n/a	n/a	0.0	0	0	0	FR3	0	R1170J
529.958	0.767	495248	WORD_OFF	n/a	n/a	BLUSH	4	0	4	[0, 0, 0]	n/a	0	0	0	n/a	n/a	0.0	0	0	0	FR3	0	R1170J
530.725	1.6	496015	WORD	n/a	wordpools/wordpool.txt	TRAY	5	0	4	[0, 0, 0]	n/a	0	0	0	n/a	n/a	0.0	0	0	0	FR3	0	R1170J
532.342	0.917	497632	WORD_OFF	n/a	n/a	TRAY	5	0	4	[0, 0, 0]	n/a	0	0	0	n/a	n/a	0.0	0	0	0	FR3	0	R1170J
533.259	1.6	498549	WORD	n/a	wordpools/wordpool.txt	PHONE	6	0	4	[0, 0, 0]	n/a	0	0	0	n/a	n/a	0.0	0	0	0	FR3	0	R1170J
534.876	0.984	500166	WORD_OFF	n/a	n/a	PHONE	6	0	4	[0, 0, 0]	n/a	0	0	0	n/a	n/a	0.0	0	0	0	FR3	0	R1170J
535.86	1.6	501150	WORD	n/a	wordpools/wordpool.txt	STAIR	7	0	4	[0, 0, 0]	n/a	0	0	0	n/a	n/a	0.0	0	0	0	FR3	0	R1170J
537.476	0.984	502766	WORD_OFF	n/a	n/a	STAIR	7	0	4	[0, 0, 0]	n/a	0	0	0	n/a	n/a	0.0	0	0	0	FR3	0	R1170J
538.46	1.6	503750	WORD	n/a	wordpools/wordpool.txt	DRUM	8	0	4	[0, 0, 0]	n/a	0	0	0	n/a	n/a	0.0	0	0	0	FR3	0	R1170J
540.077	0.984	505367	WORD_OFF	n/a	n/a	DRUM	8	0	4	[0, 0, 0]	n/a	0	0	0	n/a	n/a	0.0	0	0	0	FR3	0	R1170J
541.061	1.6	506351	WORD	n/a	wordpools/wordpool.txt	RICE	9	0	4	[0, 0, 0]	n/a	0	0	0	n/a	n/a	0.0	0	0	0	FR3	0	R1170J
542.677	1.0	507967	WORD_OFF	n/a	n/a	RICE	9	0	4	[0, 0, 0]	n/a	0	0	0	n/a	n/a	0.0	0	0	0	FR3	0	R1170J
543.677	1.6	508967	WORD	n/a	wordpools/wordpool.txt	LAMP	10	0	4	[0, 0, 0]	n/a	0	0	0	n/a	n/a	0.0	0	0	0	FR3	0	R1170J
545.294	0.917	510584	WORD_OFF	n/a	n/a	LAMP	10	0	4	[0, 0, 0]	n/a	0	0	0	n/a	n/a	0.0	0	0	0	FR3	0	R1170J
546.211	1.6	511501	WORD	n/a	wordpools/wordpool.txt	CLOUD	11	0	4	[0, 0, 0]	n/a	0	0	0	n/a	n/a	0.0	0	0	0	FR3	0	R1170J
547.828	0.883	513118	WORD_OFF	n/a	n/a	CLOUD	11	0	4	[0, 0, 0]	n/a	0	0	0	n/a	n/a	0.0	0	0	0	FR3	0	R1170J
548.711	1.6	514001	WORD	n/a	wordpools/wordpool.txt	SPONGE	12	1	4	[0, 0, 0]	n/a	0	0	0	n/a	n/a	0.0	0	0	0	FR3	0	R1170J
550.328	0.0	515618	WORD_OFF	n/a	n/a	SPONGE	12	0	4	[0, 0, 0]	n/a	0	0	0	n/a	n/a	0.0	0	0	0	FR3	0	R1170J
550.328	0.0	515618	DISTRACT_START	n/a	n/a	n/a	-999	0	4	[0, 0, 0]	n/a	0	0	0	n/a	n/a	0.0	0	0	0	FR3	0	R1170J
550.328	0.016	515618	START	n/a	n/a	n/a	-999	0	4	[-999, -999, -999]	n/a	0	0	0	n/a	n/a	0.0	0	0	0	FR3	0	R1170J
550.344	5.385	515634	PROB	5.359	n/a	n/a	-999	0	4	[5, 5, 2]	12	0	0	0	n/a	n/a	0.0	0	0	0	FR3	0	R1170J
555.729	4.767	521019	PROB	4.733	n/a	n/a	-999	0	4	[8, 5, 9]	22	0	0	0	n/a	n/a	0.0	0	0	0	FR3	0	R1170J
560.496	3.167	525786	PROB	3.143	n/a	n/a	-999	0	4	[5, 5, 5]	15	0	0	0	n/a	n/a	0.0	0	0	0	FR3	0	R1170J
563.663	2.917	528953	PROB	2.887	n/a	n/a	-999	0	4	[4, 2, 1]	7	0	0	0	n/a	n/a	0.0	0	0	0	FR3	0	R1170J
566.58	2.467	531870	PROB	2.442	n/a	n/a	-999	0	4	[1, 2, 8]	11	0	0	0	n/a	n/a	0.0	0	0	0	FR3	0	R1170J
569.047	3.814	534337	PROB	3.814	n/a	n/a	-999	0	4	[6, 7, 3]	16	0	0	0	n/a	n/a	0.0	0	0	0	FR3	0	R1170J
572.861	0.02	538151	STOP	n/a	n/a	n/a	-999	0	4	[-999, -999, -999]	n/a	0	0	0	n/a	n/a	0.0	0	0	0	FR3	0	R1170J
572.881	0.633	538171	DISTRACT_END	n/a	n/a	n/a	-999	0	4	[0, 0, 0]	n/a	0	0	0	n/a	n/a	0.0	0	0	0	FR3	0	R1170J
573.514	0.5	538804	RETRIEVAL_ORIENT	n/a	n/a	n/a	-999	0	4	[0, 0, 0]	n/a	0	0	0	n/a	n/a	0.0	0	0	0	FR3	0	R1170J
574.031	0.289	539321	REC_START	n/a	n/a	n/a	-999	0	4	[0, 0, 0]	n/a	0	0	0	n/a	n/a	0.0	0	0	0	FR3	0	R1170J
574.32	1.392	539610	REC_WORD	0.289	n/a	SPONGE	12	1	4	[0, 0, 0]	n/a	0	0	0	n/a	n/a	0.0	0	0	0	FR3	0	R1170J
575.712	2.989	541001	REC_WORD	1.681	n/a	CLOWN	2	1	4	[0, 0, 0]	n/a	0	0	0	n/a	n/a	0.0	0	0	0	FR3	0	R1170J
578.701	25.341	543990	REC_WORD_VV	4.67	n/a	<>	-999	0	4	[0, 0, 0]	n/a	0	0	0	n/a	n/a	0.0	0	0	0	FR3	0	R1170J
604.042	4.078	569331	REC_END	n/a	n/a	n/a	-999	0	4	[0, 0, 0]	n/a	0	0	0	n/a	n/a	0.0	0	0	0	FR3	0	R1170J
608.12	0.5	573409	TRIAL	n/a	n/a	n/a	-999	0	5	[0, 0, 0]	n/a	0	1	0	n/a	n/a	0.0	0	0	0	FR3	0	R1170J
608.62	10.0	573909	COUNTDOWN_START	n/a	n/a	n/a	-999	0	5	[0, 0, 0]	n/a	0	1	0	n/a	n/a	0.0	0	0	0	FR3	0	R1170J
619.048	0.005	584337	COUNTDOWN_END	n/a	n/a	n/a	-999	0	5	[0, 0, 0]	n/a	0	1	0	n/a	n/a	0.0	0	0	0	FR3	0	R1170J
619.053	1.6	584342	ORIENT	n/a	n/a	n/a	-999	0	5	[0, 0, 0]	n/a	0	1	0	n/a	n/a	0.0	0	0	0	FR3	0	R1170J
620.67	2.317	585959	ORIENT_OFF	n/a	n/a	n/a	-999	0	5	[0, 0, 0]	n/a	0	1	0	n/a	n/a	0.0	0	0	0	FR3	0	R1170J
622.987	1.6	588276	WORD	n/a	wordpools/wordpool.txt	BOOT	1	0	5	[0, 0, 0]	n/a	0	1	0	n/a	n/a	0.0	0	0	0	FR3	0	R1170J
624.483	0.0	589772	STIM_ON	n/a	n/a	BOOT	1	0	5	[0, 0, 0]	n/a	1	1	500	L7ST7	L7ST8	250.0	200	100	300	FR3	0	R1170J
624.604	0.379	589893	WORD_OFF	n/a	n/a	BOOT	1	0	5	[0, 0, 0]	n/a	1	1	500	L7ST7	L7ST8	250.0	200	100	300	FR3	0	R1170J
624.983	0.388	590272	STIM_OFF	n/a	n/a	n/a	1	0	5	[0, 0, 0]	n/a	0	1	500	L7ST7	L7ST8	250.0	200	100	300	FR3	0	R1170J
625.371	1.6	590660	WORD	n/a	wordpools/wordpool.txt	DOLL	2	0	5	[0, 0, 0]	n/a	0	1	0	n/a	n/a	0.0	0	0	0	FR3	0	R1170J
626.988	0.883	592277	WORD_OFF	n/a	n/a	DOLL	2	0	5	[0, 0, 0]	n/a	0	1	0	n/a	n/a	0.0	0	0	0	FR3	0	R1170J
627.871	1.6	593160	WORD	n/a	wordpools/wordpool.txt	FACE	3	0	5	[0, 0, 0]	n/a	0	1	0	n/a	n/a	0.0	0	0	0	FR3	0	R1170J
629.488	0.817	594777	WORD_OFF	n/a	n/a	FACE	3	0	5	[0, 0, 0]	n/a	0	1	0	n/a	n/a	0.0	0	0	0	FR3	0	R1170J
630.305	1.6	595594	WORD	n/a	wordpools/wordpool.txt	WHALE	4	0	5	[0, 0, 0]	n/a	0	1	0	n/a	n/a	0.0	0	0	0	FR3	0	R1170J
631.801	0.0	597090	STIM_ON	n/a	n/a	WHALE	4	0	5	[0, 0, 0]	n/a	1	1	500	L7ST7	L7ST8	250.0	200	100	300	FR3	0	R1170J
631.922	0.379	597211	WORD_OFF	n/a	n/a	WHALE	4	0	5	[0, 0, 0]	n/a	1	1	500	L7ST7	L7ST8	250.0	200	100	300	FR3	0	R1170J
632.301	0.537	597590	STIM_OFF	n/a	n/a	n/a	4	0	5	[0, 0, 0]	n/a	0	1	500	L7ST7	L7ST8	250.0	200	100	300	FR3	0	R1170J
632.838	1.6	598127	WORD	n/a	wordpools/wordpool.txt	ROSE	5	0	5	[0, 0, 0]	n/a	0	1	0	n/a	n/a	0.0	0	0	0	FR3	0	R1170J
634.455	0.934	599744	WORD_OFF	n/a	n/a	ROSE	5	0	5	[0, 0, 0]	n/a	0	1	0	n/a	n/a	0.0	0	0	0	FR3	0	R1170J
635.389	1.6	600678	WORD	n/a	wordpools/wordpool.txt	LOCK	6	0	5	[0, 0, 0]	n/a	0	1	0	n/a	n/a	0.0	0	0	0	FR3	0	R1170J
637.006	0.783	602295	WORD_OFF	n/a	n/a	LOCK	6	0	5	[0, 0, 0]	n/a	0	1	0	n/a	n/a	0.0	0	0	0	FR3	0	R1170J
637.789	1.6	603078	WORD	n/a	wordpools/wordpool.txt	WING	7	0	5	[0, 0, 0]	n/a	0	1	0	n/a	n/a	0.0	0	0	0	FR3	0	R1170J
639.406	0.883	604695	WORD_OFF	n/a	n/a	WING	7	0	5	[0, 0, 0]	n/a	0	1	0	n/a	n/a	0.0	0	0	0	FR3	0	R1170J
640.289	1.6	605578	WORD	n/a	wordpools/wordpool.txt	DOOR	8	0	5	[0, 0, 0]	n/a	0	1	0	n/a	n/a	0.0	0	0	0	FR3	0	R1170J
641.788	0.0	607077	STIM_ON	n/a	n/a	DOOR	8	0	5	[0, 0, 0]	n/a	1	1	500	L7ST7	L7ST8	250.0	200	100	300	FR3	0	R1170J
641.906	0.382	607195	WORD_OFF	n/a	n/a	DOOR	8	0	5	[0, 0, 0]	n/a	1	1	500	L7ST7	L7ST8	250.0	200	100	300	FR3	0	R1170J
642.288	0.535	607577	STIM_OFF	n/a	n/a	n/a	8	0	5	[0, 0, 0]	n/a	0	1	500	L7ST7	L7ST8	250.0	200	100	300	FR3	0	R1170J
642.823	1.6	608112	WORD	n/a	wordpools/wordpool.txt	BROOM	9	0	5	[0, 0, 0]	n/a	0	1	0	n/a	n/a	0.0	0	0	0	FR3	0	R1170J
644.44	0.8	609729	WORD_OFF	n/a	n/a	BROOM	9	0	5	[0, 0, 0]	n/a	0	1	0	n/a	n/a	0.0	0	0	0	FR3	0	R1170J
645.24	1.6	610529	WORD	n/a	wordpools/wordpool.txt	STOVE	10	0	5	[0, 0, 0]	n/a	0	1	0	n/a	n/a	0.0	0	0	0	FR3	0	R1170J
646.735	0.0	612024	STIM_ON	n/a	n/a	STOVE	10	0	5	[0, 0, 0]	n/a	1	1	500	L7ST7	L7ST8	250.0	200	100	300	FR3	0	R1170J
646.857	0.378	612146	WORD_OFF	n/a	n/a	STOVE	10	0	5	[0, 0, 0]	n/a	1	1	500	L7ST7	L7ST8	250.0	200	100	300	FR3	0	R1170J
647.235	0.572	612524	STIM_OFF	n/a	n/a	n/a	10	0	5	[0, 0, 0]	n/a	0	1	500	L7ST7	L7ST8	250.0	200	100	300	FR3	0	R1170J
647.807	1.6	613096	WORD	n/a	wordpools/wordpool.txt	BARN	11	0	5	[0, 0, 0]	n/a	0	1	0	n/a	n/a	0.0	0	0	0	FR3	0	R1170J
649.424	0.833	614713	WORD_OFF	n/a	n/a	BARN	11	0	5	[0, 0, 0]	n/a	0	1	0	n/a	n/a	0.0	0	0	0	FR3	0	R1170J
650.257	1.6	615546	WORD	n/a	wordpools/wordpool.txt	SKY	12	0	5	[0, 0, 0]	n/a	0	1	0	n/a	n/a	0.0	0	0	0	FR3	0	R1170J
651.874	0.0	617163	WORD_OFF	n/a	n/a	SKY	12	0	5	[0, 0, 0]	n/a	0	1	0	n/a	n/a	0.0	0	0	0	FR3	0	R1170J
651.874	0.001	617163	DISTRACT_START	n/a	n/a	n/a	-999	0	5	[0, 0, 0]	n/a	0	1	0	n/a	n/a	0.0	0	0	0	FR3	0	R1170J
651.875	0.016	617164	START	n/a	n/a	n/a	-999	0	5	[-999, -999, -999]	n/a	0	1	0	n/a	n/a	0.0	0	0	0	FR3	0	R1170J
651.891	3.717	617180	PROB	3.679	n/a	n/a	-999	0	5	[4, 3, 7]	14	0	1	0	n/a	n/a	0.0	0	0	0	FR3	0	R1170J
655.608	3.834	620897	PROB	3.81	n/a	n/a	-999	0	5	[7, 3, 5]	15	0	1	0	n/a	n/a	0.0	0	0	0	FR3	0	R1170J
659.442	8.501	624731	PROB	8.479	n/a	n/a	-999	0	5	[7, 6, 7]	20	0	1	0	n/a	n/a	0.0	0	0	0	FR3	0	R1170J
667.943	5.107	633232	PROB	5.107	n/a	n/a	-999	0	5	[5, 7, 6]	18	0	1	0	n/a	n/a	0.0	0	0	0	FR3	0	R1170J
673.05	0.011	638339	STOP	n/a	n/a	n/a	-999	0	5	[-999, -999, -999]	n/a	0	1	0	n/a	n/a	0.0	0	0	0	FR3	0	R1170J
673.061	0.549	638350	DISTRACT_END	n/a	n/a	n/a	-999	0	5	[0, 0, 0]	n/a	0	1	0	n/a	n/a	0.0	0	0	0	FR3	0	R1170J
673.61	0.5	638899	RETRIEVAL_ORIENT	n/a	n/a	n/a	-999	0	5	[0, 0, 0]	n/a	0	1	0	n/a	n/a	0.0	0	0	0	FR3	0	R1170J
674.129	30.0	639418	REC_START	n/a	n/a	n/a	-999	0	5	[0, 0, 0]	n/a	0	1	0	n/a	n/a	0.0	0	0	0	FR3	0	R1170J
704.129	0.011	669417	REC_WORD_VV	30.0	n/a	<>	-999	0	5	[0, 0, 0]	n/a	0	1	0	n/a	n/a	0.0	0	0	0	FR3	0	R1170J
704.14	4.841	669428	REC_END	n/a	n/a	n/a	-999	0	5	[0, 0, 0]	n/a	0	1	0	n/a	n/a	0.0	0	0	0	FR3	0	R1170J
708.981	0.5	674269	TRIAL	n/a	n/a	n/a	-999	0	6	[0, 0, 0]	n/a	0	1	0	n/a	n/a	0.0	0	0	0	FR3	0	R1170J
709.481	10.0	674769	COUNTDOWN_START	n/a	n/a	n/a	-999	0	6	[0, 0, 0]	n/a	0	1	0	n/a	n/a	0.0	0	0	0	FR3	0	R1170J
719.909	0.007	685197	COUNTDOWN_END	n/a	n/a	n/a	-999	0	6	[0, 0, 0]	n/a	0	1	0	n/a	n/a	0.0	0	0	0	FR3	0	R1170J
719.916	1.6	685204	ORIENT	n/a	n/a	n/a	-999	0	6	[0, 0, 0]	n/a	0	1	0	n/a	n/a	0.0	0	0	0	FR3	0	R1170J
721.533	1.917	686821	ORIENT_OFF	n/a	n/a	n/a	-999	0	6	[0, 0, 0]	n/a	0	1	0	n/a	n/a	0.0	0	0	0	FR3	0	R1170J
723.45	1.6	688738	WORD	n/a	wordpools/wordpool.txt	SUIT	1	0	6	[0, 0, 0]	n/a	0	1	0	n/a	n/a	0.0	0	0	0	FR3	0	R1170J
725.068	0.782	690356	WORD_OFF	n/a	n/a	SUIT	1	0	6	[0, 0, 0]	n/a	0	1	0	n/a	n/a	0.0	0	0	0	FR3	0	R1170J
725.85	1.6	691138	WORD	n/a	wordpools/wordpool.txt	STRAW	2	0	6	[0, 0, 0]	n/a	0	1	0	n/a	n/a	0.0	0	0	0	FR3	0	R1170J
727.355	0.0	692643	STIM_ON	n/a	n/a	STRAW	2	0	6	[0, 0, 0]	n/a	1	1	500	L7ST7	L7ST8	250.0	200	100	300	FR3	0	R1170J
727.467	0.388	692755	WORD_OFF	n/a	n/a	STRAW	2	0	6	[0, 0, 0]	n/a	1	1	500	L7ST7	L7ST8	250.0	200	100	300	FR3	0	R1170J
727.855	0.529	693143	STIM_OFF	n/a	n/a	n/a	2	0	6	[0, 0, 0]	n/a	0	1	500	L7ST7	L7ST8	250.0	200	100	300	FR3	0	R1170J
728.384	1.6	693672	WORD	n/a	wordpools/wordpool.txt	HAND	3	0	6	[0, 0, 0]	n/a	0	1	0	n/a	n/a	0.0	0	0	0	FR3	0	R1170J
729.888	0.0	695176	STIM_ON	n/a	n/a	HAND	3	0	6	[0, 0, 0]	n/a	1	1	500	L7ST7	L7ST8	250.0	200	100	300	FR3	0	R1170J
730.001	0.387	695289	WORD_OFF	n/a	n/a	HAND	3	0	6	[0, 0, 0]	n/a	1	1	500	L7ST7	L7ST8	250.0	200	100	300	FR3	0	R1170J
730.388	0.38	695676	STIM_OFF	n/a	n/a	n/a	3	0	6	[0, 0, 0]	n/a	0	1	500	L7ST7	L7ST8	250.0	200	100	300	FR3	0	R1170J
730.768	1.6	696056	WORD	n/a	wordpools/wordpool.txt	STOOL	4	0	6	[0, 0, 0]	n/a	0	1	0	n/a	n/a	0.0	0	0	0	FR3	0	R1170J
732.268	0.0	697556	STIM_ON	n/a	n/a	STOOL	4	0	6	[0, 0, 0]	n/a	1	1	500	L7ST7	L7ST8	250.0	200	100	300	FR3	0	R1170J
732.385	0.383	697673	WORD_OFF	n/a	n/a	STOOL	4	0	6	[0, 0, 0]	n/a	1	1	500	L7ST7	L7ST8	250.0	200	100	300	FR3	0	R1170J
732.768	0.45	698056	STIM_OFF	n/a	n/a	n/a	4	0	6	[0, 0, 0]	n/a	0	1	500	L7ST7	L7ST8	250.0	200	100	300	FR3	0	R1170J
733.218	1.6	698506	WORD	n/a	wordpools/wordpool.txt	GATE	5	0	6	[0, 0, 0]	n/a	0	1	0	n/a	n/a	0.0	0	0	0	FR3	0	R1170J
734.835	0.9	700123	WORD_OFF	n/a	n/a	GATE	5	0	6	[0, 0, 0]	n/a	0	1	0	n/a	n/a	0.0	0	0	0	FR3	0	R1170J
735.735	1.6	701023	WORD	n/a	wordpools/wordpool.txt	GRASS	6	0	6	[0, 0, 0]	n/a	0	1	0	n/a	n/a	0.0	0	0	0	FR3	0	R1170J
737.352	0.884	702640	WORD_OFF	n/a	n/a	GRASS	6	0	6	[0, 0, 0]	n/a	0	1	0	n/a	n/a	0.0	0	0	0	FR3	0	R1170J
738.236	1.6	703524	WORD	n/a	wordpools/wordpool.txt	JAIL	7	0	6	[0, 0, 0]	n/a	0	1	0	n/a	n/a	0.0	0	0	0	FR3	0	R1170J
739.852	0.933	705140	WORD_OFF	n/a	n/a	JAIL	7	0	6	[0, 0, 0]	n/a	0	1	0	n/a	n/a	0.0	0	0	0	FR3	0	R1170J
740.785	1.6	706073	WORD	n/a	wordpools/wordpool.txt	AXE	8	0	6	[0, 0, 0]	n/a	0	1	0	n/a	n/a	0.0	0	0	0	FR3	0	R1170J
742.403	0.966	707691	WORD_OFF	n/a	n/a	AXE	8	0	6	[0, 0, 0]	n/a	0	1	0	n/a	n/a	0.0	0	0	0	FR3	0	R1170J
743.369	1.6	708657	WORD	n/a	wordpools/wordpool.txt	ROAD	9	0	6	[0, 0, 0]	n/a	0	1	0	n/a	n/a	0.0	0	0	0	FR3	0	R1170J
744.879	0.0	710167	STIM_ON	n/a	n/a	ROAD	9	0	6	[0, 0, 0]	n/a	1	1	500	L7ST7	L7ST8	250.0	200	100	300	FR3	0	R1170J
744.986	0.393	710274	WORD_OFF	n/a	n/a	ROAD	9	0	6	[0, 0, 0]	n/a	1	1	500	L7ST7	L7ST8	250.0	200	100	300	FR3	0	R1170J
745.379	0.391	710667	STIM_OFF	n/a	n/a	n/a	9	0	6	[0, 0, 0]	n/a	0	1	500	L7ST7	L7ST8	250.0	200	100	300	FR3	0	R1170J
745.77	1.6	711058	WORD	n/a	wordpools/wordpool.txt	APE	10	1	6	[0, 0, 0]	n/a	0	1	0	n/a	n/a	0.0	0	0	0	FR3	0	R1170J
747.387	0.917	712675	WORD_OFF	n/a	n/a	APE	10	0	6	[0, 0, 0]	n/a	0	1	0	n/a	n/a	0.0	0	0	0	FR3	0	R1170J
748.304	1.6	713592	WORD	n/a	wordpools/wordpool.txt	HILL	11	1	6	[0, 0, 0]	n/a	0	1	0	n/a	n/a	0.0	0	0	0	FR3	0	R1170J
749.92	0.9	715208	WORD_OFF	n/a	n/a	HILL	11	0	6	[0, 0, 0]	n/a	0	1	0	n/a	n/a	0.0	0	0	0	FR3	0	R1170J
750.82	1.6	716108	WORD	n/a	wordpools/wordpool.txt	WALL	12	0	6	[0, 0, 0]	n/a	0	1	0	n/a	n/a	0.0	0	0	0	FR3	0	R1170J
752.334	0.0	717622	STIM_ON	n/a	n/a	WALL	12	0	6	[0, 0, 0]	n/a	1	1	500	L7ST7	L7ST8	250.0	200	100	300	FR3	0	R1170J
752.437	0.0	717725	WORD_OFF	n/a	n/a	WALL	12	0	6	[0, 0, 0]	n/a	1	1	500	L7ST7	L7ST8	250.0	200	100	300	FR3	0	R1170J
752.437	0.001	717725	DISTRACT_START	n/a	n/a	n/a	-999	0	6	[0, 0, 0]	n/a	1	1	500	L7ST7	L7ST8	250.0	200	100	300	FR3	0	R1170J
752.438	0.016	717726	START	n/a	n/a	n/a	-999	0	6	[-999, -999, -999]	n/a	0	1	0	n/a	n/a	0.0	0	0	0	FR3	0	R1170J
752.454	0.38	717742	PROB	4.064	n/a	n/a	-999	0	6	[2, 2, 1]	5	0	1	0	n/a	n/a	0.0	0	0	0	FR3	0	R1170J
752.834	3.72	718122	STIM_OFF	n/a	n/a	n/a	-999	0	6	[0, 0, 0]	n/a	0	1	500	L7ST7	L7ST8	250.0	200	100	300	FR3	0	R1170J
756.554	3.585	721842	PROB	3.548	n/a	n/a	-999	0	6	[4, 2, 6]	12	0	1	0	n/a	n/a	0.0	0	0	0	FR3	0	R1170J
760.139	6.034	725427	PROB	5.997	n/a	n/a	-999	0	6	[5, 2, 3]	10	0	1	0	n/a	n/a	0.0	0	0	0	FR3	0	R1170J
766.173	5.383	731461	PROB	5.36	n/a	n/a	-999	0	6	[3, 6, 8]	17	0	1	0	n/a	n/a	0.0	0	0	0	FR3	0	R1170J
771.556	8.946	736844	PROB	8.946	n/a	n/a	-999	0	6	[5, 2, 9]	16	0	1	0	n/a	n/a	0.0	0	0	0	FR3	0	R1170J
780.502	0.022	745790	STOP	n/a	n/a	n/a	-999	0	6	[-999, -999, -999]	n/a	0	1	0	n/a	n/a	0.0	0	0	0	FR3	0	R1170J
780.524	0.684	745812	DISTRACT_END	n/a	n/a	n/a	-999	0	6	[0, 0, 0]	n/a	0	1	0	n/a	n/a	0.0	0	0	0	FR3	0	R1170J
781.208	0.5	746496	RETRIEVAL_ORIENT	n/a	n/a	n/a	-999	0	6	[0, 0, 0]	n/a	0	1	0	n/a	n/a	0.0	0	0	0	FR3	0	R1170J
781.725	0.743	747013	REC_START	n/a	n/a	n/a	-999	0	6	[0, 0, 0]	n/a	0	1	0	n/a	n/a	0.0	0	0	0	FR3	0	R1170J
782.468	1.134	747756	REC_WORD	0.743	n/a	APE	10	1	6	[0, 0, 0]	n/a	0	1	0	n/a	n/a	0.0	0	0	0	FR3	0	R1170J
783.602	28.135	748890	REC_WORD	1.877	n/a	HILL	11	1	6	[0, 0, 0]	n/a	0	1	0	n/a	n/a	0.0	0	0	0	FR3	0	R1170J
811.737	4.625	777024	REC_END	n/a	n/a	n/a	-999	0	6	[0, 0, 0]	n/a	0	1	0	n/a	n/a	0.0	0	0	0	FR3	0	R1170J
816.362	0.5	781649	TRIAL	n/a	n/a	n/a	-999	0	7	[0, 0, 0]	n/a	0	0	0	n/a	n/a	0.0	0	0	0	FR3	0	R1170J
816.862	10.0	782149	COUNTDOWN_START	n/a	n/a	n/a	-999	0	7	[0, 0, 0]	n/a	0	0	0	n/a	n/a	0.0	0	0	0	FR3	0	R1170J
827.29	0.007	792577	COUNTDOWN_END	n/a	n/a	n/a	-999	0	7	[0, 0, 0]	n/a	0	0	0	n/a	n/a	0.0	0	0	0	FR3	0	R1170J
827.297	1.6	792584	ORIENT	n/a	n/a	n/a	-999	0	7	[0, 0, 0]	n/a	0	0	0	n/a	n/a	0.0	0	0	0	FR3	0	R1170J
828.914	1.966	794201	ORIENT_OFF	n/a	n/a	n/a	-999	0	7	[0, 0, 0]	n/a	0	0	0	n/a	n/a	0.0	0	0	0	FR3	0	R1170J
830.88	1.6	796167	WORD	n/a	wordpools/wordpool.txt	SPOON	1	0	7	[0, 0, 0]	n/a	0	0	0	n/a	n/a	0.0	0	0	0	FR3	0	R1170J
832.497	0.984	797784	WORD_OFF	n/a	n/a	SPOON	1	0	7	[0, 0, 0]	n/a	0	0	0	n/a	n/a	0.0	0	0	0	FR3	0	R1170J
833.481	1.6	798768	WORD	n/a	wordpools/wordpool.txt	STORE	2	0	7	[0, 0, 0]	n/a	0	0	0	n/a	n/a	0.0	0	0	0	FR3	0	R1170J
835.099	0.766	800386	WORD_OFF	n/a	n/a	STORE	2	0	7	[0, 0, 0]	n/a	0	0	0	n/a	n/a	0.0	0	0	0	FR3	0	R1170J
835.865	1.6	801152	WORD	n/a	wordpools/wordpool.txt	SHIRT	3	0	7	[0, 0, 0]	n/a	0	0	0	n/a	n/a	0.0	0	0	0	FR3	0	R1170J
837.481	0.817	802768	WORD_OFF	n/a	n/a	SHIRT	3	0	7	[0, 0, 0]	n/a	0	0	0	n/a	n/a	0.0	0	0	0	FR3	0	R1170J
838.298	1.6	803585	WORD	n/a	wordpools/wordpool.txt	BLOOM	4	0	7	[0, 0, 0]	n/a	0	0	0	n/a	n/a	0.0	0	0	0	FR3	0	R1170J
839.915	0.883	805202	WORD_OFF	n/a	n/a	BLOOM	4	0	7	[0, 0, 0]	n/a	0	0	0	n/a	n/a	0.0	0	0	0	FR3	0	R1170J
840.798	1.6	806085	WORD	n/a	wordpools/wordpool.txt	MOOSE	5	0	7	[0, 0, 0]	n/a	0	0	0	n/a	n/a	0.0	0	0	0	FR3	0	R1170J
842.415	0.884	807702	WORD_OFF	n/a	n/a	MOOSE	5	0	7	[0, 0, 0]	n/a	0	0	0	n/a	n/a	0.0	0	0	0	FR3	0	R1170J
843.299	1.6	808586	WORD	n/a	wordpools/wordpool.txt	STEAK	6	0	7	[0, 0, 0]	n/a	0	0	0	n/a	n/a	0.0	0	0	0	FR3	0	R1170J
844.916	0.767	810203	WORD_OFF	n/a	n/a	STEAK	6	0	7	[0, 0, 0]	n/a	0	0	0	n/a	n/a	0.0	0	0	0	FR3	0	R1170J
845.683	1.6	810970	WORD	n/a	wordpools/wordpool.txt	BEAR	7	0	7	[0, 0, 0]	n/a	0	0	0	n/a	n/a	0.0	0	0	0	FR3	0	R1170J
847.299	0.868	812586	WORD_OFF	n/a	n/a	BEAR	7	0	7	[0, 0, 0]	n/a	0	0	0	n/a	n/a	0.0	0	0	0	FR3	0	R1170J
848.167	1.6	813454	WORD	n/a	wordpools/wordpool.txt	SEAT	8	0	7	[0, 0, 0]	n/a	0	0	0	n/a	n/a	0.0	0	0	0	FR3	0	R1170J
849.783	0.966	815070	WORD_OFF	n/a	n/a	SEAT	8	0	7	[0, 0, 0]	n/a	0	0	0	n/a	n/a	0.0	0	0	0	FR3	0	R1170J
850.749	1.6	816036	WORD	n/a	wordpools/wordpool.txt	FRUIT	9	0	7	[0, 0, 0]	n/a	0	0	0	n/a	n/a	0.0	0	0	0	FR3	0	R1170J
852.367	0.916	817654	WORD_OFF	n/a	n/a	FRUIT	9	0	7	[0, 0, 0]	n/a	0	0	0	n/a	n/a	0.0	0	0	0	FR3	0	R1170J
853.283	1.6	818570	WORD	n/a	wordpools/wordpool.txt	SWAMP	10	0	7	[0, 0, 0]	n/a	0	0	0	n/a	n/a	0.0	0	0	0	FR3	0	R1170J
854.9	0.95	820187	WORD_OFF	n/a	n/a	SWAMP	10	0	7	[0, 0, 0]	n/a	0	0	0	n/a	n/a	0.0	0	0	0	FR3	0	R1170J
855.85	1.6	821137	WORD	n/a	wordpools/wordpool.txt	FORK	11	0	7	[0, 0, 0]	n/a	0	0	0	n/a	n/a	0.0	0	0	0	FR3	0	R1170J
857.467	0.951	822754	WORD_OFF	n/a	n/a	FORK	11	0	7	[0, 0, 0]	n/a	0	0	0	n/a	n/a	0.0	0	0	0	FR3	0	R1170J
858.418	1.6	823705	WORD	n/a	wordpools/wordpool.txt	DIME	12	0	7	[0, 0, 0]	n/a	0	0	0	n/a	n/a	0.0	0	0	0	FR3	0	R1170J
860.034	0.0	825321	WORD_OFF	n/a	n/a	DIME	12	0	7	[0, 0, 0]	n/a	0	0	0	n/a	n/a	0.0	0	0	0	FR3	0	R1170J
860.034	0.001	825321	DISTRACT_START	n/a	n/a	n/a	-999	0	7	[0, 0, 0]	n/a	0	0	0	n/a	n/a	0.0	0	0	0	FR3	0	R1170J
860.035	0.016	825322	START	n/a	n/a	n/a	-999	0	7	[-999, -999, -999]	n/a	0	0	0	n/a	n/a	0.0	0	0	0	FR3	0	R1170J
860.051	3.55	825338	PROB	3.527	n/a	n/a	-999	0	7	[1, 2, 6]	9	0	0	0	n/a	n/a	0.0	0	0	0	FR3	0	R1170J
863.601	4.351	828888	PROB	4.312	n/a	n/a	-999	0	7	[8, 9, 2]	19	0	0	0	n/a	n/a	0.0	0	0	0	FR3	0	R1170J
867.952	7.418	833239	PROB	7.385	n/a	n/a	-999	0	7	[4, 8, 1]	13	0	0	0	n/a	n/a	0.0	0	0	0	FR3	0	R1170J
875.37	14.495	840657	PROB	14.495	n/a	n/a	-999	0	7	[9, 7, 8]	24	0	0	0	n/a	n/a	0.0	0	0	0	FR3	0	R1170J
889.865	0.006	855152	STOP	n/a	n/a	n/a	-999	0	7	[-999, -999, -999]	n/a	0	0	0	n/a	n/a	0.0	0	0	0	FR3	0	R1170J
889.871	0.617	855158	DISTRACT_END	n/a	n/a	n/a	-999	0	7	[0, 0, 0]	n/a	0	0	0	n/a	n/a	0.0	0	0	0	FR3	0	R1170J
890.488	0.5	855775	RETRIEVAL_ORIENT	n/a	n/a	n/a	-999	0	7	[0, 0, 0]	n/a	0	0	0	n/a	n/a	0.0	0	0	0	FR3	0	R1170J
891.006	0.798	856293	REC_START	n/a	n/a	n/a	-999	0	7	[0, 0, 0]	n/a	0	0	0	n/a	n/a	0.0	0	0	0	FR3	0	R1170J
891.804	29.213	857091	REC_WORD	0.798	n/a	APE	-999	0	7	[0, 0, 0]	n/a	0	0	0	n/a	n/a	0.0	0	0	0	FR3	0	R1170J
921.017	4.177	886304	REC_END	n/a	n/a	n/a	-999	0	7	[0, 0, 0]	n/a	0	0	0	n/a	n/a	0.0	0	0	0	FR3	0	R1170J
925.194	0.5	890481	TRIAL	n/a	n/a	n/a	-999	0	8	[0, 0, 0]	n/a	0	1	0	n/a	n/a	0.0	0	0	0	FR3	0	R1170J
925.694	10.0	890980	COUNTDOWN_START	n/a	n/a	n/a	-999	0	8	[0, 0, 0]	n/a	0	1	0	n/a	n/a	0.0	0	0	0	FR3	0	R1170J
936.122	0.006	901408	COUNTDOWN_END	n/a	n/a	n/a	-999	0	8	[0, 0, 0]	n/a	0	1	0	n/a	n/a	0.0	0	0	0	FR3	0	R1170J
936.128	1.6	901414	ORIENT	n/a	n/a	n/a	-999	0	8	[0, 0, 0]	n/a	0	1	0	n/a	n/a	0.0	0	0	0	FR3	0	R1170J
937.744	1.95	903030	ORIENT_OFF	n/a	n/a	n/a	-999	0	8	[0, 0, 0]	n/a	0	1	0	n/a	n/a	0.0	0	0	0	FR3	0	R1170J
939.694	1.6	904980	WORD	n/a	wordpools/wordpool.txt	STAR	1	0	8	[0, 0, 0]	n/a	0	1	0	n/a	n/a	0.0	0	0	0	FR3	0	R1170J
941.311	0.934	906597	WORD_OFF	n/a	n/a	STAR	1	0	8	[0, 0, 0]	n/a	0	1	0	n/a	n/a	0.0	0	0	0	FR3	0	R1170J
942.245	1.6	907531	WORD	n/a	wordpools/wordpool.txt	POOL	2	0	8	[0, 0, 0]	n/a	0	1	0	n/a	n/a	0.0	0	0	0	FR3	0	R1170J
943.758	0.0	909044	STIM_ON	n/a	n/a	POOL	2	0	8	[0, 0, 0]	n/a	1	1	500	L7ST7	L7ST8	250.0	200	100	300	FR3	0	R1170J
943.862	0.396	909148	WORD_OFF	n/a	n/a	POOL	2	0	8	[0, 0, 0]	n/a	1	1	500	L7ST7	L7ST8	250.0	200	100	300	FR3	0	R1170J
944.258	0.471	909544	STIM_OFF	n/a	n/a	n/a	2	0	8	[0, 0, 0]	n/a	0	1	500	L7ST7	L7ST8	250.0	200	100	300	FR3	0	R1170J
944.729	1.6	910015	WORD	n/a	wordpools/wordpool.txt	PIN	3	0	8	[0, 0, 0]	n/a	0	1	0	n/a	n/a	0.0	0	0	0	FR3	0	R1170J
946.246	0.0	911532	STIM_ON	n/a	n/a	PIN	3	0	8	[0, 0, 0]	n/a	1	1	500	L7ST7	L7ST8	250.0	200	100	300	FR3	0	R1170J
946.345	0.401	911631	WORD_OFF	n/a	n/a	PIN	3	0	8	[0, 0, 0]	n/a	1	1	500	L7ST7	L7ST8	250.0	200	100	300	FR3	0	R1170J
946.746	0.466	912032	STIM_OFF	n/a	n/a	n/a	3	0	8	[0, 0, 0]	n/a	0	1	500	L7ST7	L7ST8	250.0	200	100	300	FR3	0	R1170J
947.212	1.6	912498	WORD	n/a	wordpools/wordpool.txt	POLE	4	0	8	[0, 0, 0]	n/a	0	1	0	n/a	n/a	0.0	0	0	0	FR3	0	R1170J
948.728	0.0	914014	STIM_ON	n/a	n/a	POLE	4	0	8	[0, 0, 0]	n/a	1	1	500	L7ST7	L7ST8	250.0	200	100	300	FR3	0	R1170J
948.829	0.399	914115	WORD_OFF	n/a	n/a	POLE	4	0	8	[0, 0, 0]	n/a	1	1	500	L7ST7	L7ST8	250.0	200	100	300	FR3	0	R1170J
949.228	0.551	914514	STIM_OFF	n/a	n/a	n/a	4	0	8	[0, 0, 0]	n/a	0	1	500	L7ST7	L7ST8	250.0	200	100	300	FR3	0	R1170J
949.779	1.6	915065	WORD	n/a	wordpools/wordpool.txt	SHRIMP	5	0	8	[0, 0, 0]	n/a	0	1	0	n/a	n/a	0.0	0	0	0	FR3	0	R1170J
951.301	0.0	916587	STIM_ON	n/a	n/a	SHRIMP	5	0	8	[0, 0, 0]	n/a	1	1	500	L7ST7	L7ST8	250.0	200	100	300	FR3	0	R1170J
951.396	0.406	916682	WORD_OFF	n/a	n/a	SHRIMP	5	0	8	[0, 0, 0]	n/a	1	1	500	L7ST7	L7ST8	250.0	200	100	300	FR3	0	R1170J
951.802	0.544	917088	STIM_OFF	n/a	n/a	n/a	5	0	8	[0, 0, 0]	n/a	0	1	500	L7ST7	L7ST8	250.0	200	100	300	FR3	0	R1170J
952.346	1.6	917632	WORD	n/a	wordpools/wordpool.txt	WEED	6	0	8	[0, 0, 0]	n/a	0	1	0	n/a	n/a	0.0	0	0	0	FR3	0	R1170J
953.861	0.0	919147	STIM_ON	n/a	n/a	WEED	6	0	8	[0, 0, 0]	n/a	1	1	500	L7ST7	L7ST8	250.0	200	100	300	FR3	0	R1170J
953.963	0.398	919249	WORD_OFF	n/a	n/a	WEED	6	0	8	[0, 0, 0]	n/a	1	1	500	L7ST7	L7ST8	250.0	200	100	300	FR3	0	R1170J
954.361	0.452	919647	STIM_OFF	n/a	n/a	n/a	6	0	8	[0, 0, 0]	n/a	0	1	500	L7ST7	L7ST8	250.0	200	100	300	FR3	0	R1170J
954.813	1.6	920099	WORD	n/a	wordpools/wordpool.txt	SNAKE	7	0	8	[0, 0, 0]	n/a	0	1	0	n/a	n/a	0.0	0	0	0	FR3	0	R1170J
956.33	0.0	921616	STIM_ON	n/a	n/a	SNAKE	7	0	8	[0, 0, 0]	n/a	1	1	500	L7ST7	L7ST8	250.0	200	100	300	FR3	0	R1170J
956.43	0.4	921716	WORD_OFF	n/a	n/a	SNAKE	7	0	8	[0, 0, 0]	n/a	1	1	500	L7ST7	L7ST8	250.0	200	100	300	FR3	0	R1170J
956.83	0.534	922116	STIM_OFF	n/a	n/a	n/a	7	0	8	[0, 0, 0]	n/a	0	1	500	L7ST7	L7ST8	250.0	200	100	300	FR3	0	R1170J
957.364	1.6	922650	WORD	n/a	wordpools/wordpool.txt	SEAL	8	1	8	[0, 0, 0]	n/a	0	1	0	n/a	n/a	0.0	0	0	0	FR3	0	R1170J
958.88	0.0	924166	STIM_ON	n/a	n/a	SEAL	8	1	8	[0, 0, 0]	n/a	1	1	500	L7ST7	L7ST8	250.0	200	100	300	FR3	0	R1170J
958.98	0.4	924266	WORD_OFF	n/a	n/a	SEAL	8	0	8	[0, 0, 0]	n/a	1	1	500	L7ST7	L7ST8	250.0	200	100	300	FR3	0	R1170J
959.38	0.45	924666	STIM_OFF	n/a	n/a	n/a	8	0	8	[0, 0, 0]	n/a	0	1	500	L7ST7	L7ST8	250.0	200	100	300	FR3	0	R1170J
959.83	1.6	925116	WORD	n/a	wordpools/wordpool.txt	WORM	9	1	8	[0, 0, 0]	n/a	0	1	0	n/a	n/a	0.0	0	0	0	FR3	0	R1170J
961.351	0.0	926637	STIM_ON	n/a	n/a	WORM	9	1	8	[0, 0, 0]	n/a	1	1	500	L7ST7	L7ST8	250.0	200	100	300	FR3	0	R1170J
961.447	0.404	926733	WORD_OFF	n/a	n/a	WORM	9	0	8	[0, 0, 0]	n/a	1	1	500	L7ST7	L7ST8	250.0	200	100	300	FR3	0	R1170J
961.851	0.546	927137	STIM_OFF	n/a	n/a	n/a	9	0	8	[0, 0, 0]	n/a	0	1	500	L7ST7	L7ST8	250.0	200	100	300	FR3	0	R1170J
962.397	1.6	927683	WORD	n/a	wordpools/wordpool.txt	FISH	10	1	8	[0, 0, 0]	n/a	0	1	0	n/a	n/a	0.0	0	0	0	FR3	0	R1170J
964.014	0.8	929300	WORD_OFF	n/a	n/a	FISH	10	0	8	[0, 0, 0]	n/a	0	1	0	n/a	n/a	0.0	0	0	0	FR3	0	R1170J
964.814	1.6	930100	WORD	n/a	wordpools/wordpool.txt	SHELL	11	0	8	[0, 0, 0]	n/a	0	1	0	n/a	n/a	0.0	0	0	0	FR3	0	R1170J
966.431	0.884	931717	WORD_OFF	n/a	n/a	SHELL	11	0	8	[0, 0, 0]	n/a	0	1	0	n/a	n/a	0.0	0	0	0	FR3	0	R1170J
967.315	1.6	932601	WORD	n/a	wordpools/wordpool.txt	DOCK	12	0	8	[0, 0, 0]	n/a	0	1	0	n/a	n/a	0.0	0	0	0	FR3	0	R1170J
968.932	0.0	934218	WORD_OFF	n/a	n/a	DOCK	12	0	8	[0, 0, 0]	n/a	0	1	0	n/a	n/a	0.0	0	0	0	FR3	0	R1170J
968.932	0.0	934218	DISTRACT_START	n/a	n/a	n/a	-999	0	8	[0, 0, 0]	n/a	0	1	0	n/a	n/a	0.0	0	0	0	FR3	0	R1170J
968.932	0.016	934218	START	n/a	n/a	n/a	-999	0	8	[-999, -999, -999]	n/a	0	1	0	n/a	n/a	0.0	0	0	0	FR3	0	R1170J
968.948	3.734	934234	PROB	3.706	n/a	n/a	-999	0	8	[4, 6, 1]	11	0	1	0	n/a	n/a	0.0	0	0	0	FR3	0	R1170J
972.682	3.385	937968	PROB	3.354	n/a	n/a	-999	0	8	[3, 5, 3]	11	0	1	0	n/a	n/a	0.0	0	0	0	FR3	0	R1170J
976.067	3.733	941353	PROB	3.705	n/a	n/a	-999	0	8	[7, 4, 2]	13	0	1	0	n/a	n/a	0.0	0	0	0	FR3	0	R1170J
979.8	3.318	945086	PROB	3.294	n/a	n/a	-999	0	8	[1, 5, 4]	10	0	1	0	n/a	n/a	0.0	0	0	0	FR3	0	R1170J
983.118	4.984	948404	PROB	4.952	n/a	n/a	-999	0	8	[2, 9, 3]	14	0	1	0	n/a	n/a	0.0	0	0	0	FR3	0	R1170J
988.102	2.67	953388	PROB	2.67	n/a	n/a	-999	0	8	[5, 1, 3]	9	0	1	0	n/a	n/a	0.0	0	0	0	FR3	0	R1170J
990.772	0.012	956058	STOP	n/a	n/a	n/a	-999	0	8	[-999, -999, -999]	n/a	0	1	0	n/a	n/a	0.0	0	0	0	FR3	0	R1170J
990.784	0.55	956070	DISTRACT_END	n/a	n/a	n/a	-999	0	8	[0, 0, 0]	n/a	0	1	0	n/a	n/a	0.0	0	0	0	FR3	0	R1170J
991.334	0.5	956620	RETRIEVAL_ORIENT	n/a	n/a	n/a	-999	0	8	[0, 0, 0]	n/a	0	1	0	n/a	n/a	0.0	0	0	0	FR3	0	R1170J
991.852	0.507	957138	REC_START	n/a	n/a	n/a	-999	0	8	[0, 0, 0]	n/a	0	1	0	n/a	n/a	0.0	0	0	0	FR3	0	R1170J
992.359	1.339	957645	REC_WORD	0.507	n/a	SEAL	8	1	8	[0, 0, 0]	n/a	0	1	0	n/a	n/a	0.0	0	0	0	FR3	0	R1170J
993.698	1.199	958984	REC_WORD	1.846	n/a	WORM	9	1	8	[0, 0, 0]	n/a	0	1	0	n/a	n/a	0.0	0	0	0	FR3	0	R1170J
994.897	11.259	960183	REC_WORD	3.045	n/a	FISH	10	1	8	[0, 0, 0]	n/a	0	1	0	n/a	n/a	0.0	0	0	0	FR3	0	R1170J
1006.156	4.99	971442	REC_WORD_VV	14.304	n/a	<>	-999	0	8	[0, 0, 0]	n/a	0	1	0	n/a	n/a	0.0	0	0	0	FR3	0	R1170J
1011.146	9.363	976432	REC_WORD_VV	19.294	n/a	<>	-999	0	8	[0, 0, 0]	n/a	0	1	0	n/a	n/a	0.0	0	0	0	FR3	0	R1170J
1020.509	1.355	985795	REC_WORD_VV	28.657	n/a	<>	-999	0	8	[0, 0, 0]	n/a	0	1	0	n/a	n/a	0.0	0	0	0	FR3	0	R1170J
1021.864	5.375	987150	REC_END	n/a	n/a	n/a	-999	0	8	[0, 0, 0]	n/a	0	1	0	n/a	n/a	0.0	0	0	0	FR3	0	R1170J
1027.239	0.5	992525	TRIAL	n/a	n/a	n/a	-999	0	9	[0, 0, 0]	n/a	0	0	0	n/a	n/a	0.0	0	0	0	FR3	0	R1170J
1027.739	10.0	993025	COUNTDOWN_START	n/a	n/a	n/a	-999	0	9	[0, 0, 0]	n/a	0	0	0	n/a	n/a	0.0	0	0	0	FR3	0	R1170J
1038.167	0.008	1003453	COUNTDOWN_END	n/a	n/a	n/a	-999	0	9	[0, 0, 0]	n/a	0	0	0	n/a	n/a	0.0	0	0	0	FR3	0	R1170J
1038.175	1.6	1003461	ORIENT	n/a	n/a	n/a	-999	0	9	[0, 0, 0]	n/a	0	0	0	n/a	n/a	0.0	0	0	0	FR3	0	R1170J
1039.79	2.134	1005076	ORIENT_OFF	n/a	n/a	n/a	-999	0	9	[0, 0, 0]	n/a	0	0	0	n/a	n/a	0.0	0	0	0	FR3	0	R1170J
1041.924	1.6	1007210	WORD	n/a	wordpools/wordpool.txt	BOAT	1	0	9	[0, 0, 0]	n/a	0	0	0	n/a	n/a	0.0	0	0	0	FR3	0	R1170J
1043.541	0.9	1008826	WORD_OFF	n/a	n/a	BOAT	1	0	9	[0, 0, 0]	n/a	0	0	0	n/a	n/a	0.0	0	0	0	FR3	0	R1170J
1044.441	1.6	1009726	WORD	n/a	wordpools/wordpool.txt	ROOM	2	0	9	[0, 0, 0]	n/a	0	0	0	n/a	n/a	0.0	0	0	0	FR3	0	R1170J
1046.059	0.949	1011344	WORD_OFF	n/a	n/a	ROOM	2	0	9	[0, 0, 0]	n/a	0	0	0	n/a	n/a	0.0	0	0	0	FR3	0	R1170J
1047.008	1.6	1012293	WORD	n/a	wordpools/wordpool.txt	CRANE	3	0	9	[0, 0, 0]	n/a	0	0	0	n/a	n/a	0.0	0	0	0	FR3	0	R1170J
1048.625	0.867	1013910	WORD_OFF	n/a	n/a	CRANE	3	0	9	[0, 0, 0]	n/a	0	0	0	n/a	n/a	0.0	0	0	0	FR3	0	R1170J
1049.492	1.6	1014777	WORD	n/a	wordpools/wordpool.txt	CAPE	4	0	9	[0, 0, 0]	n/a	0	0	0	n/a	n/a	0.0	0	0	0	FR3	0	R1170J
1051.11	0.915	1016395	WORD_OFF	n/a	n/a	CAPE	4	0	9	[0, 0, 0]	n/a	0	0	0	n/a	n/a	0.0	0	0	0	FR3	0	R1170J
1052.025	1.6	1017310	WORD	n/a	wordpools/wordpool.txt	SLEEVE	5	0	9	[0, 0, 0]	n/a	0	0	0	n/a	n/a	0.0	0	0	0	FR3	0	R1170J
1053.642	1.001	1018927	WORD_OFF	n/a	n/a	SLEEVE	5	0	9	[0, 0, 0]	n/a	0	0	0	n/a	n/a	0.0	0	0	0	FR3	0	R1170J
1054.643	1.6	1019928	WORD	n/a	wordpools/wordpool.txt	HAT	6	0	9	[0, 0, 0]	n/a	0	0	0	n/a	n/a	0.0	0	0	0	FR3	0	R1170J
1056.26	0.901	1021545	WORD_OFF	n/a	n/a	HAT	6	0	9	[0, 0, 0]	n/a	0	0	0	n/a	n/a	0.0	0	0	0	FR3	0	R1170J
1057.161	1.6	1022446	WORD	n/a	wordpools/wordpool.txt	FOOT	7	0	9	[0, 0, 0]	n/a	0	0	0	n/a	n/a	0.0	0	0	0	FR3	0	R1170J
1058.777	0.899	1024062	WORD_OFF	n/a	n/a	FOOT	7	0	9	[0, 0, 0]	n/a	0	0	0	n/a	n/a	0.0	0	0	0	FR3	0	R1170J
1059.676	1.6	1024961	WORD	n/a	wordpools/wordpool.txt	VEST	8	0	9	[0, 0, 0]	n/a	0	0	0	n/a	n/a	0.0	0	0	0	FR3	0	R1170J
1061.293	0.885	1026578	WORD_OFF	n/a	n/a	VEST	8	0	9	[0, 0, 0]	n/a	0	0	0	n/a	n/a	0.0	0	0	0	FR3	0	R1170J
1062.178	1.6	1027463	WORD	n/a	wordpools/wordpool.txt	DRESS	9	0	9	[0, 0, 0]	n/a	0	0	0	n/a	n/a	0.0	0	0	0	FR3	0	R1170J
1063.794	0.833	1029079	WORD_OFF	n/a	n/a	DRESS	9	0	9	[0, 0, 0]	n/a	0	0	0	n/a	n/a	0.0	0	0	0	FR3	0	R1170J
1064.627	1.6	1029912	WORD	n/a	wordpools/wordpool.txt	BEACH	10	1	9	[0, 0, 0]	n/a	0	0	0	n/a	n/a	0.0	0	0	0	FR3	0	R1170J
1066.244	0.935	1031529	WORD_OFF	n/a	n/a	BEACH	10	0	9	[0, 0, 0]	n/a	0	0	0	n/a	n/a	0.0	0	0	0	FR3	0	R1170J
1067.179	1.6	1032464	WORD	n/a	wordpools/wordpool.txt	BOARD	11	0	9	[0, 0, 0]	n/a	0	0	0	n/a	n/a	0.0	0	0	0	FR3	0	R1170J
1068.795	0.783	1034080	WORD_OFF	n/a	n/a	BOARD	11	0	9	[0, 0, 0]	n/a	0	0	0	n/a	n/a	0.0	0	0	0	FR3	0	R1170J
1069.578	1.6	1034863	WORD	n/a	wordpools/wordpool.txt	WAND	12	0	9	[0, 0, 0]	n/a	0	0	0	n/a	n/a	0.0	0	0	0	FR3	0	R1170J
1071.196	0.0	1036481	WORD_OFF	n/a	n/a	WAND	12	0	9	[0, 0, 0]	n/a	0	0	0	n/a	n/a	0.0	0	0	0	FR3	0	R1170J
1071.196	0.0	1036481	DISTRACT_START	n/a	n/a	n/a	-999	0	9	[0, 0, 0]	n/a	0	0	0	n/a	n/a	0.0	0	0	0	FR3	0	R1170J
1071.196	0.015	1036481	START	n/a	n/a	n/a	-999	0	9	[-999, -999, -999]	n/a	0	0	0	n/a	n/a	0.0	0	0	0	FR3	0	R1170J
1071.211	5.134	1036496	PROB	5.11	n/a	n/a	-999	0	9	[6, 6, 5]	17	0	0	0	n/a	n/a	0.0	0	0	0	FR3	0	R1170J
1076.345	3.651	1041630	PROB	3.616	n/a	n/a	-999	0	9	[7, 8, 2]	17	0	0	0	n/a	n/a	0.0	0	0	0	FR3	0	R1170J
1079.996	4.101	1045281	PROB	4.07	n/a	n/a	-999	0	9	[1, 7, 8]	16	0	0	0	n/a	n/a	0.0	0	0	0	FR3	0	R1170J
1084.097	3.101	1049382	PROB	3.072	n/a	n/a	-999	0	9	[1, 1, 4]	6	0	0	0	n/a	n/a	0.0	0	0	0	FR3	0	R1170J
1087.198	2.967	1052483	PROB	2.931	n/a	n/a	-999	0	9	[9, 1, 3]	13	0	0	0	n/a	n/a	0.0	0	0	0	FR3	0	R1170J
1090.165	4.187	1055450	PROB	4.187	n/a	n/a	-999	0	9	[2, 5, 2]	9	0	0	0	n/a	n/a	0.0	0	0	0	FR3	0	R1170J
1094.352	0.012	1059637	STOP	n/a	n/a	n/a	-999	0	9	[-999, -999, -999]	n/a	0	0	0	n/a	n/a	0.0	0	0	0	FR3	0	R1170J
1094.364	0.517	1059649	DISTRACT_END	n/a	n/a	n/a	-999	0	9	[0, 0, 0]	n/a	0	0	0	n/a	n/a	0.0	0	0	0	FR3	0	R1170J
1094.881	0.5	1060166	RETRIEVAL_ORIENT	n/a	n/a	n/a	-999	0	9	[0, 0, 0]	n/a	0	0	0	n/a	n/a	0.0	0	0	0	FR3	0	R1170J
1095.399	1.738	1060684	REC_START	n/a	n/a	n/a	-999	0	9	[0, 0, 0]	n/a	0	0	0	n/a	n/a	0.0	0	0	0	FR3	0	R1170J
1097.137	1.5	1062422	REC_WORD_VV	1.738	n/a	<>	-999	0	9	[0, 0, 0]	n/a	0	0	0	n/a	n/a	0.0	0	0	0	FR3	0	R1170J
1098.637	10.079	1063922	REC_WORD_VV	3.238	n/a	<>	-999	0	9	[0, 0, 0]	n/a	0	0	0	n/a	n/a	0.0	0	0	0	FR3	0	R1170J
1108.716	2.398	1074001	REC_WORD	13.317	n/a	BEACH	10	1	9	[0, 0, 0]	n/a	0	0	0	n/a	n/a	0.0	0	0	0	FR3	0	R1170J
1111.114	0.713	1076399	REC_WORD_VV	15.715	n/a	<>	-999	0	9	[0, 0, 0]	n/a	0	0	0	n/a	n/a	0.0	0	0	0	FR3	0	R1170J
1111.827	0.493	1077112	REC_WORD_VV	16.428	n/a	<>	-999	0	9	[0, 0, 0]	n/a	0	0	0	n/a	n/a	0.0	0	0	0	FR3	0	R1170J
1112.32	6.217	1077605	REC_WORD	16.921	n/a	BEACH	10	1	9	[0, 0, 0]	n/a	0	0	0	n/a	n/a	0.0	0	0	0	FR3	0	R1170J
1118.537	6.873	1083822	REC_WORD	23.138	n/a	GEESE	-999	0	9	[0, 0, 0]	n/a	0	0	0	n/a	n/a	0.0	0	0	0	FR3	0	R1170J
1125.41	4.959	1090695	REC_END	n/a	n/a	n/a	-999	0	9	[0, 0, 0]	n/a	0	0	0	n/a	n/a	0.0	0	0	0	FR3	0	R1170J
1130.369	0.5	1095654	TRIAL	n/a	n/a	n/a	-999	0	10	[0, 0, 0]	n/a	0	1	0	n/a	n/a	0.0	0	0	0	FR3	0	R1170J
1130.869	10.0	1096154	COUNTDOWN_START	n/a	n/a	n/a	-999	0	10	[0, 0, 0]	n/a	0	1	0	n/a	n/a	0.0	0	0	0	FR3	0	R1170J
1141.297	0.007	1106582	COUNTDOWN_END	n/a	n/a	n/a	-999	0	10	[0, 0, 0]	n/a	0	1	0	n/a	n/a	0.0	0	0	0	FR3	0	R1170J
1141.304	1.6	1106589	ORIENT	n/a	n/a	n/a	-999	0	10	[0, 0, 0]	n/a	0	1	0	n/a	n/a	0.0	0	0	0	FR3	0	R1170J
1142.92	2.202	1108205	ORIENT_OFF	n/a	n/a	n/a	-999	0	10	[0, 0, 0]	n/a	0	1	0	n/a	n/a	0.0	0	0	0	FR3	0	R1170J
1145.122	1.6	1110407	WORD	n/a	wordpools/wordpool.txt	HORN	1	0	10	[0, 0, 0]	n/a	0	1	0	n/a	n/a	0.0	0	0	0	FR3	0	R1170J
1146.645	0.0	1111930	STIM_ON	n/a	n/a	HORN	1	0	10	[0, 0, 0]	n/a	1	1	500	L7ST7	L7ST8	250.0	200	100	300	FR3	0	R1170J
1146.738	0.407	1112023	WORD_OFF	n/a	n/a	HORN	1	0	10	[0, 0, 0]	n/a	1	1	500	L7ST7	L7ST8	250.0	200	100	300	FR3	0	R1170J
1147.145	0.526	1112430	STIM_OFF	n/a	n/a	n/a	1	0	10	[0, 0, 0]	n/a	0	1	500	L7ST7	L7ST8	250.0	200	100	300	FR3	0	R1170J
1147.671	1.6	1112956	WORD	n/a	wordpools/wordpool.txt	RIB	2	1	10	[0, 0, 0]	n/a	0	1	0	n/a	n/a	0.0	0	0	0	FR3	0	R1170J
1149.288	0.933	1114573	WORD_OFF	n/a	n/a	RIB	2	0	10	[0, 0, 0]	n/a	0	1	0	n/a	n/a	0.0	0	0	0	FR3	0	R1170J
1150.221	1.6	1115506	WORD	n/a	wordpools/wordpool.txt	PANTS	3	0	10	[0, 0, 0]	n/a	0	1	0	n/a	n/a	0.0	0	0	0	FR3	0	R1170J
1151.838	0.984	1117123	WORD_OFF	n/a	n/a	PANTS	3	0	10	[0, 0, 0]	n/a	0	1	0	n/a	n/a	0.0	0	0	0	FR3	0	R1170J
1152.822	1.6	1118107	WORD	n/a	wordpools/wordpool.txt	MAT	4	0	10	[0, 0, 0]	n/a	0	1	0	n/a	n/a	0.0	0	0	0	FR3	0	R1170J
1154.439	0.983	1119724	WORD_OFF	n/a	n/a	MAT	4	0	10	[0, 0, 0]	n/a	0	1	0	n/a	n/a	0.0	0	0	0	FR3	0	R1170J
1155.422	1.6	1120707	WORD	n/a	wordpools/wordpool.txt	STREET	5	0	10	[0, 0, 0]	n/a	0	1	0	n/a	n/a	0.0	0	0	0	FR3	0	R1170J
1156.952	0.0	1122237	STIM_ON	n/a	n/a	STREET	5	0	10	[0, 0, 0]	n/a	1	1	500	L7ST7	L7ST8	250.0	200	100	300	FR3	0	R1170J
1157.039	0.413	1122324	WORD_OFF	n/a	n/a	STREET	5	0	10	[0, 0, 0]	n/a	1	1	500	L7ST7	L7ST8	250.0	200	100	300	FR3	0	R1170J
1157.452	0.471	1122737	STIM_OFF	n/a	n/a	n/a	5	0	10	[0, 0, 0]	n/a	0	1	500	L7ST7	L7ST8	250.0	200	100	300	FR3	0	R1170J
1157.923	1.6	1123208	WORD	n/a	wordpools/wordpool.txt	ROPE	6	0	10	[0, 0, 0]	n/a	0	1	0	n/a	n/a	0.0	0	0	0	FR3	0	R1170J
1159.539	0.867	1124824	WORD_OFF	n/a	n/a	ROPE	6	0	10	[0, 0, 0]	n/a	0	1	0	n/a	n/a	0.0	0	0	0	FR3	0	R1170J
1160.406	1.6	1125690	WORD	n/a	wordpools/wordpool.txt	RUG	7	0	10	[0, 0, 0]	n/a	0	1	0	n/a	n/a	0.0	0	0	0	FR3	0	R1170J
1162.023	0.95	1127307	WORD_OFF	n/a	n/a	RUG	7	0	10	[0, 0, 0]	n/a	0	1	0	n/a	n/a	0.0	0	0	0	FR3	0	R1170J
1162.973	1.6	1128257	WORD	n/a	wordpools/wordpool.txt	COUCH	8	0	10	[0, 0, 0]	n/a	0	1	0	n/a	n/a	0.0	0	0	0	FR3	0	R1170J
1164.59	0.9	1129874	WORD_OFF	n/a	n/a	COUCH	8	0	10	[0, 0, 0]	n/a	0	1	0	n/a	n/a	0.0	0	0	0	FR3	0	R1170J
1165.49	1.6	1130774	WORD	n/a	wordpools/wordpool.txt	TIE	9	0	10	[0, 0, 0]	n/a	0	1	0	n/a	n/a	0.0	0	0	0	FR3	0	R1170J
1167.108	0.984	1132392	WORD_OFF	n/a	n/a	TIE	9	0	10	[0, 0, 0]	n/a	0	1	0	n/a	n/a	0.0	0	0	0	FR3	0	R1170J
1168.092	1.6	1133376	WORD	n/a	wordpools/wordpool.txt	CART	10	0	10	[0, 0, 0]	n/a	0	1	0	n/a	n/a	0.0	0	0	0	FR3	0	R1170J
1169.623	0.0	1134907	STIM_ON	n/a	n/a	CART	10	0	10	[0, 0, 0]	n/a	1	1	500	L7ST7	L7ST8	250.0	200	100	300	FR3	0	R1170J
1169.707	0.416	1134991	WORD_OFF	n/a	n/a	CART	10	0	10	[0, 0, 0]	n/a	1	1	500	L7ST7	L7ST8	250.0	200	100	300	FR3	0	R1170J
1170.123	0.384	1135407	STIM_OFF	n/a	n/a	n/a	10	0	10	[0, 0, 0]	n/a	0	1	500	L7ST7	L7ST8	250.0	200	100	300	FR3	0	R1170J
1170.507	1.6	1135791	WORD	n/a	wordpools/wordpool.txt	PURSE	11	0	10	[0, 0, 0]	n/a	0	1	0	n/a	n/a	0.0	0	0	0	FR3	0	R1170J
1172.108	1.017	1137392	WORD_OFF	n/a	n/a	PURSE	11	0	10	[0, 0, 0]	n/a	0	1	0	n/a	n/a	0.0	0	0	0	FR3	0	R1170J
1173.125	1.6	1138409	WORD	n/a	wordpools/wordpool.txt	ARM	12	0	10	[0, 0, 0]	n/a	0	1	0	n/a	n/a	0.0	0	0	0	FR3	0	R1170J
1174.662	0.0	1139946	STIM_ON	n/a	n/a	ARM	12	0	10	[0, 0, 0]	n/a	1	1	500	L7ST7	L7ST8	250.0	200	100	300	FR3	0	R1170J
1174.741	0.0	1140025	WORD_OFF	n/a	n/a	ARM	12	0	10	[0, 0, 0]	n/a	1	1	500	L7ST7	L7ST8	250.0	200	100	300	FR3	0	R1170J
1174.741	0.001	1140025	DISTRACT_START	n/a	n/a	n/a	-999	0	10	[0, 0, 0]	n/a	1	1	500	L7ST7	L7ST8	250.0	200	100	300	FR3	0	R1170J
1174.742	0.016	1140026	START	n/a	n/a	n/a	-999	0	10	[-999, -999, -999]	n/a	0	1	0	n/a	n/a	0.0	0	0	0	FR3	0	R1170J
1174.758	0.404	1140042	PROB	4.118	n/a	n/a	-999	0	10	[3, 5, 2]	10	0	1	0	n/a	n/a	0.0	0	0	0	FR3	0	R1170J
1175.162	3.746	1140446	STIM_OFF	n/a	n/a	n/a	-999	0	10	[0, 0, 0]	n/a	0	1	500	L7ST7	L7ST8	250.0	200	100	300	FR3	0	R1170J
1178.908	4.518	1144192	PROB	4.481	n/a	n/a	-999	0	10	[4, 5, 8]	17	0	1	0	n/a	n/a	0.0	0	0	0	FR3	0	R1170J
1183.426	5.8	1148710	PROB	5.763	n/a	n/a	-999	0	10	[6, 5, 9]	20	0	1	0	n/a	n/a	0.0	0	0	0	FR3	0	R1170J
1189.226	2.384	1154510	PROB	2.347	n/a	n/a	-999	0	10	[7, 3, 1]	11	0	1	0	n/a	n/a	0.0	0	0	0	FR3	0	R1170J
1191.61	6.649	1156894	PROB	6.649	n/a	n/a	-999	0	10	[9, 8, 9]	26	0	1	0	n/a	n/a	0.0	0	0	0	FR3	0	R1170J
1198.259	0.019	1163543	STOP	n/a	n/a	n/a	-999	0	10	[-999, -999, -999]	n/a	0	1	0	n/a	n/a	0.0	0	0	0	FR3	0	R1170J
1198.278	0.666	1163562	DISTRACT_END	n/a	n/a	n/a	-999	0	10	[0, 0, 0]	n/a	0	1	0	n/a	n/a	0.0	0	0	0	FR3	0	R1170J
1198.944	0.5	1164228	RETRIEVAL_ORIENT	n/a	n/a	n/a	-999	0	10	[0, 0, 0]	n/a	0	1	0	n/a	n/a	0.0	0	0	0	FR3	0	R1170J
1199.462	1.163	1164746	REC_START	n/a	n/a	n/a	-999	0	10	[0, 0, 0]	n/a	0	1	0	n/a	n/a	0.0	0	0	0	FR3	0	R1170J
1200.625	25.878	1165909	REC_WORD_VV	1.163	n/a	<>	-999	0	10	[0, 0, 0]	n/a	0	1	0	n/a	n/a	0.0	0	0	0	FR3	0	R1170J
1226.503	2.554	1191787	REC_WORD	27.041	n/a	RIB	2	1	10	[0, 0, 0]	n/a	0	1	0	n/a	n/a	0.0	0	0	0	FR3	0	R1170J
1229.057	0.418	1194341	REC_WORD_VV	29.595	n/a	<>	-999	0	10	[0, 0, 0]	n/a	0	1	0	n/a	n/a	0.0	0	0	0	FR3	0	R1170J
1229.475	5.692	1194759	REC_END	n/a	n/a	n/a	-999	0	10	[0, 0, 0]	n/a	0	1	0	n/a	n/a	0.0	0	0	0	FR3	0	R1170J
1235.167	0.5	1200451	TRIAL	n/a	n/a	n/a	-999	0	11	[0, 0, 0]	n/a	0	1	0	n/a	n/a	0.0	0	0	0	FR3	0	R1170J
1235.667	10.0	1200951	COUNTDOWN_START	n/a	n/a	n/a	-999	0	11	[0, 0, 0]	n/a	0	1	0	n/a	n/a	0.0	0	0	0	FR3	0	R1170J
1246.095	0.007	1211379	COUNTDOWN_END	n/a	n/a	n/a	-999	0	11	[0, 0, 0]	n/a	0	1	0	n/a	n/a	0.0	0	0	0	FR3	0	R1170J
1246.102	1.6	1211386	ORIENT	n/a	n/a	n/a	-999	0	11	[0, 0, 0]	n/a	0	1	0	n/a	n/a	0.0	0	0	0	FR3	0	R1170J
1247.718	2.35	1213002	ORIENT_OFF	n/a	n/a	n/a	-999	0	11	[0, 0, 0]	n/a	0	1	0	n/a	n/a	0.0	0	0	0	FR3	0	R1170J
1250.068	1.6	1215352	WORD	n/a	wordpools/wordpool.txt	ANT	1	0	11	[0, 0, 0]	n/a	0	1	0	n/a	n/a	0.0	0	0	0	FR3	0	R1170J
1251.684	0.951	1216968	WORD_OFF	n/a	n/a	ANT	1	0	11	[0, 0, 0]	n/a	0	1	0	n/a	n/a	0.0	0	0	0	FR3	0	R1170J
1252.635	1.6	1217919	WORD	n/a	wordpools/wordpool.txt	COW	2	0	11	[0, 0, 0]	n/a	0	1	0	n/a	n/a	0.0	0	0	0	FR3	0	R1170J
1254.252	0.8	1219536	WORD_OFF	n/a	n/a	COW	2	0	11	[0, 0, 0]	n/a	0	1	0	n/a	n/a	0.0	0	0	0	FR3	0	R1170J
1255.052	1.6	1220336	WORD	n/a	wordpools/wordpool.txt	OWL	3	1	11	[0, 0, 0]	n/a	0	1	0	n/a	n/a	0.0	0	0	0	FR3	0	R1170J
1256.669	0.916	1221953	WORD_OFF	n/a	n/a	OWL	3	0	11	[0, 0, 0]	n/a	0	1	0	n/a	n/a	0.0	0	0	0	FR3	0	R1170J
1257.585	1.6	1222869	WORD	n/a	wordpools/wordpool.txt	LAWN	4	0	11	[0, 0, 0]	n/a	0	1	0	n/a	n/a	0.0	0	0	0	FR3	0	R1170J
1259.203	0.832	1224487	WORD_OFF	n/a	n/a	LAWN	4	0	11	[0, 0, 0]	n/a	0	1	0	n/a	n/a	0.0	0	0	0	FR3	0	R1170J
1260.035	1.6	1225319	WORD	n/a	wordpools/wordpool.txt	PIG	5	0	11	[0, 0, 0]	n/a	0	1	0	n/a	n/a	0.0	0	0	0	FR3	0	R1170J
1261.652	0.834	1226936	WORD_OFF	n/a	n/a	PIG	5	0	11	[0, 0, 0]	n/a	0	1	0	n/a	n/a	0.0	0	0	0	FR3	0	R1170J
1262.486	1.6	1227770	WORD	n/a	wordpools/wordpool.txt	LAMB	6	0	11	[0, 0, 0]	n/a	0	1	0	n/a	n/a	0.0	0	0	0	FR3	0	R1170J
1264.104	0.799	1229388	WORD_OFF	n/a	n/a	LAMB	6	0	11	[0, 0, 0]	n/a	0	1	0	n/a	n/a	0.0	0	0	0	FR3	0	R1170J
1264.903	1.6	1230187	WORD	n/a	wordpools/wordpool.txt	FLUTE	7	0	11	[0, 0, 0]	n/a	0	1	0	n/a	n/a	0.0	0	0	0	FR3	0	R1170J
1266.52	1.0	1231804	WORD_OFF	n/a	n/a	FLUTE	7	0	11	[0, 0, 0]	n/a	0	1	0	n/a	n/a	0.0	0	0	0	FR3	0	R1170J
1267.52	1.6	1232804	WORD	n/a	wordpools/wordpool.txt	FUR	8	0	11	[0, 0, 0]	n/a	0	1	0	n/a	n/a	0.0	0	0	0	FR3	0	R1170J
1269.138	0.799	1234422	WORD_OFF	n/a	n/a	FUR	8	0	11	[0, 0, 0]	n/a	0	1	0	n/a	n/a	0.0	0	0	0	FR3	0	R1170J
1269.937	1.6	1235221	WORD	n/a	wordpools/wordpool.txt	CAT	9	1	11	[0, 0, 0]	n/a	0	1	0	n/a	n/a	0.0	0	0	0	FR3	0	R1170J
1271.476	0.0	1236760	STIM_ON	n/a	n/a	CAT	9	1	11	[0, 0, 0]	n/a	1	1	500	L7ST7	L7ST8	250.0	200	100	300	FR3	0	R1170J
1271.554	0.422	1236838	WORD_OFF	n/a	n/a	CAT	9	0	11	[0, 0, 0]	n/a	1	1	500	L7ST7	L7ST8	250.0	200	100	300	FR3	0	R1170J
1271.976	0.444	1237260	STIM_OFF	n/a	n/a	n/a	9	0	11	[0, 0, 0]	n/a	0	1	500	L7ST7	L7ST8	250.0	200	100	300	FR3	0	R1170J
1272.42	1.6	1237704	WORD	n/a	wordpools/wordpool.txt	TREE	10	1	11	[0, 0, 0]	n/a	0	1	0	n/a	n/a	0.0	0	0	0	FR3	0	R1170J
1273.96	0.0	1239244	STIM_ON	n/a	n/a	TREE	10	1	11	[0, 0, 0]	n/a	1	1	500	L7ST7	L7ST8	250.0	200	100	300	FR3	0	R1170J
1274.037	0.423	1239321	WORD_OFF	n/a	n/a	TREE	10	0	11	[0, 0, 0]	n/a	1	1	500	L7ST7	L7ST8	250.0	200	100	300	FR3	0	R1170J
1274.46	0.561	1239744	STIM_OFF	n/a	n/a	n/a	10	0	11	[0, 0, 0]	n/a	0	1	500	L7ST7	L7ST8	250.0	200	100	300	FR3	0	R1170J
1275.021	1.6	1240305	WORD	n/a	wordpools/wordpool.txt	CAGE	11	0	11	[0, 0, 0]	n/a	0	1	0	n/a	n/a	0.0	0	0	0	FR3	0	R1170J
1276.638	0.783	1241921	WORD_OFF	n/a	n/a	CAGE	11	0	11	[0, 0, 0]	n/a	0	1	0	n/a	n/a	0.0	0	0	0	FR3	0	R1170J
1277.421	1.6	1242704	WORD	n/a	wordpools/wordpool.txt	PET	12	1	11	[0, 0, 0]	n/a	0	1	0	n/a	n/a	0.0	0	0	0	FR3	0	R1170J
1279.038	0.0	1244321	WORD_OFF	n/a	n/a	PET	12	0	11	[0, 0, 0]	n/a	0	1	0	n/a	n/a	0.0	0	0	0	FR3	0	R1170J
1279.038	0.001	1244321	DISTRACT_START	n/a	n/a	n/a	-999	0	11	[0, 0, 0]	n/a	0	1	0	n/a	n/a	0.0	0	0	0	FR3	0	R1170J
1279.039	0.015	1244322	START	n/a	n/a	n/a	-999	0	11	[-999, -999, -999]	n/a	0	1	0	n/a	n/a	0.0	0	0	0	FR3	0	R1170J
1279.054	4.385	1244337	PROB	4.354	n/a	n/a	-999	0	11	[9, 3, 5]	17	0	1	0	n/a	n/a	0.0	0	0	0	FR3	0	R1170J
1283.439	3.3	1248722	PROB	3.272	n/a	n/a	-999	0	11	[2, 5, 5]	12	0	1	0	n/a	n/a	0.0	0	0	0	FR3	0	R1170J
1286.739	6.217	1252022	PROB	6.189	n/a	n/a	-999	0	11	[9, 8, 5]	23	0	1	0	n/a	n/a	0.0	0	0	0	FR3	0	R1170J
1292.956	3.834	1258239	PROB	3.803	n/a	n/a	-999	0	11	[9, 2, 7]	18	0	1	0	n/a	n/a	0.0	0	0	0	FR3	0	R1170J
1296.79	7.457	1262073	PROB	7.457	n/a	n/a	-999	0	11	[5, 6, 7]	18	0	1	0	n/a	n/a	0.0	0	0	0	FR3	0	R1170J
1304.247	0.011	1269530	STOP	n/a	n/a	n/a	-999	0	11	[-999, -999, -999]	n/a	0	1	0	n/a	n/a	0.0	0	0	0	FR3	0	R1170J
1304.258	0.6	1269541	DISTRACT_END	n/a	n/a	n/a	-999	0	11	[0, 0, 0]	n/a	0	1	0	n/a	n/a	0.0	0	0	0	FR3	0	R1170J
1304.858	0.5	1270141	RETRIEVAL_ORIENT	n/a	n/a	n/a	-999	0	11	[0, 0, 0]	n/a	0	1	0	n/a	n/a	0.0	0	0	0	FR3	0	R1170J
1305.375	0.483	1270658	REC_START	n/a	n/a	n/a	-999	0	11	[0, 0, 0]	n/a	0	1	0	n/a	n/a	0.0	0	0	0	FR3	0	R1170J
1305.858	1.091	1271141	REC_WORD	0.483	n/a	OWL	3	1	11	[0, 0, 0]	n/a	0	1	0	n/a	n/a	0.0	0	0	0	FR3	0	R1170J
1306.949	1.079	1272232	REC_WORD	1.574	n/a	CAT	9	1	11	[0, 0, 0]	n/a	0	1	0	n/a	n/a	0.0	0	0	0	FR3	0	R1170J
1308.028	1.181	1273311	REC_WORD	2.653	n/a	TREE	10	1	11	[0, 0, 0]	n/a	0	1	0	n/a	n/a	0.0	0	0	0	FR3	0	R1170J
1309.209	14.769	1274492	REC_WORD	3.834	n/a	PET	12	1	11	[0, 0, 0]	n/a	0	1	0	n/a	n/a	0.0	0	0	0	FR3	0	R1170J
1323.978	0.474	1289261	REC_WORD_VV	18.603	n/a	<>	-999	0	11	[0, 0, 0]	n/a	0	1	0	n/a	n/a	0.0	0	0	0	FR3	0	R1170J
1324.452	0.914	1289735	REC_WORD	19.077	n/a	COUCH	-999	0	11	[0, 0, 0]	n/a	0	1	0	n/a	n/a	0.0	0	0	0	FR3	0	R1170J
1325.366	10.02	1290649	REC_WORD_VV	19.991	n/a	<>	-999	0	11	[0, 0, 0]	n/a	0	1	0	n/a	n/a	0.0	0	0	0	FR3	0	R1170J
1335.386	5.543	1300669	REC_END	n/a	n/a	n/a	-999	0	11	[0, 0, 0]	n/a	0	1	0	n/a	n/a	0.0	0	0	0	FR3	0	R1170J
1340.929	0.5	1306212	TRIAL	n/a	n/a	n/a	-999	0	12	[0, 0, 0]	n/a	0	0	0	n/a	n/a	0.0	0	0	0	FR3	0	R1170J
1341.429	10.0	1306712	COUNTDOWN_START	n/a	n/a	n/a	-999	0	12	[0, 0, 0]	n/a	0	0	0	n/a	n/a	0.0	0	0	0	FR3	0	R1170J
1351.857	0.007	1317140	COUNTDOWN_END	n/a	n/a	n/a	-999	0	12	[0, 0, 0]	n/a	0	0	0	n/a	n/a	0.0	0	0	0	FR3	0	R1170J
1351.864	1.6	1317147	ORIENT	n/a	n/a	n/a	-999	0	12	[0, 0, 0]	n/a	0	0	0	n/a	n/a	0.0	0	0	0	FR3	0	R1170J
1353.481	2.017	1318764	ORIENT_OFF	n/a	n/a	n/a	-999	0	12	[0, 0, 0]	n/a	0	0	0	n/a	n/a	0.0	0	0	0	FR3	0	R1170J
1355.498	1.6	1320781	WORD	n/a	wordpools/wordpool.txt	FLAME	1	0	12	[0, 0, 0]	n/a	0	0	0	n/a	n/a	0.0	0	0	0	FR3	0	R1170J
1357.116	0.882	1322399	WORD_OFF	n/a	n/a	FLAME	1	0	12	[0, 0, 0]	n/a	0	0	0	n/a	n/a	0.0	0	0	0	FR3	0	R1170J
1357.998	1.6	1323281	WORD	n/a	wordpools/wordpool.txt	TRAIN	2	0	12	[0, 0, 0]	n/a	0	0	0	n/a	n/a	0.0	0	0	0	FR3	0	R1170J
1359.615	1.0	1324898	WORD_OFF	n/a	n/a	TRAIN	2	0	12	[0, 0, 0]	n/a	0	0	0	n/a	n/a	0.0	0	0	0	FR3	0	R1170J
1360.615	1.6	1325898	WORD	n/a	wordpools/wordpool.txt	CAR	3	0	12	[0, 0, 0]	n/a	0	0	0	n/a	n/a	0.0	0	0	0	FR3	0	R1170J
1362.232	0.817	1327515	WORD_OFF	n/a	n/a	CAR	3	0	12	[0, 0, 0]	n/a	0	0	0	n/a	n/a	0.0	0	0	0	FR3	0	R1170J
1363.049	1.6	1328332	WORD	n/a	wordpools/wordpool.txt	BOX	4	0	12	[0, 0, 0]	n/a	0	0	0	n/a	n/a	0.0	0	0	0	FR3	0	R1170J
1364.666	0.816	1329949	WORD_OFF	n/a	n/a	BOX	4	0	12	[0, 0, 0]	n/a	0	0	0	n/a	n/a	0.0	0	0	0	FR3	0	R1170J
1365.482	1.6	1330765	WORD	n/a	wordpools/wordpool.txt	VAN	5	0	12	[0, 0, 0]	n/a	0	0	0	n/a	n/a	0.0	0	0	0	FR3	0	R1170J
1367.084	0.916	1332367	WORD_OFF	n/a	n/a	VAN	5	0	12	[0, 0, 0]	n/a	0	0	0	n/a	n/a	0.0	0	0	0	FR3	0	R1170J
1368.0	1.6	1333283	WORD	n/a	wordpools/wordpool.txt	BADGE	6	0	12	[0, 0, 0]	n/a	0	0	0	n/a	n/a	0.0	0	0	0	FR3	0	R1170J
1369.616	0.967	1334899	WORD_OFF	n/a	n/a	BADGE	6	0	12	[0, 0, 0]	n/a	0	0	0	n/a	n/a	0.0	0	0	0	FR3	0	R1170J
1370.583	1.6	1335866	WORD	n/a	wordpools/wordpool.txt	SKI	7	0	12	[0, 0, 0]	n/a	0	0	0	n/a	n/a	0.0	0	0	0	FR3	0	R1170J
1372.184	0.816	1337467	WORD_OFF	n/a	n/a	SKI	7	0	12	[0, 0, 0]	n/a	0	0	0	n/a	n/a	0.0	0	0	0	FR3	0	R1170J
1373.0	1.6	1338283	WORD	n/a	wordpools/wordpool.txt	SMOKE	8	0	12	[0, 0, 0]	n/a	0	0	0	n/a	n/a	0.0	0	0	0	FR3	0	R1170J
1374.617	0.85	1339900	WORD_OFF	n/a	n/a	SMOKE	8	0	12	[0, 0, 0]	n/a	0	0	0	n/a	n/a	0.0	0	0	0	FR3	0	R1170J
1375.467	1.6	1340750	WORD	n/a	wordpools/wordpool.txt	JET	9	0	12	[0, 0, 0]	n/a	0	0	0	n/a	n/a	0.0	0	0	0	FR3	0	R1170J
1377.085	0.966	1342368	WORD_OFF	n/a	n/a	JET	9	0	12	[0, 0, 0]	n/a	0	0	0	n/a	n/a	0.0	0	0	0	FR3	0	R1170J
1378.051	1.6	1343334	WORD	n/a	wordpools/wordpool.txt	PLANE	10	0	12	[0, 0, 0]	n/a	0	0	0	n/a	n/a	0.0	0	0	0	FR3	0	R1170J
1379.667	0.867	1344950	WORD_OFF	n/a	n/a	PLANE	10	0	12	[0, 0, 0]	n/a	0	0	0	n/a	n/a	0.0	0	0	0	FR3	0	R1170J
1380.534	1.6	1345817	WORD	n/a	wordpools/wordpool.txt	HOSE	11	1	12	[0, 0, 0]	n/a	0	0	0	n/a	n/a	0.0	0	0	0	FR3	0	R1170J
1382.152	0.934	1347435	WORD_OFF	n/a	n/a	HOSE	11	0	12	[0, 0, 0]	n/a	0	0	0	n/a	n/a	0.0	0	0	0	FR3	0	R1170J
1383.086	1.6	1348369	WORD	n/a	wordpools/wordpool.txt	FROG	12	1	12	[0, 0, 0]	n/a	0	0	0	n/a	n/a	0.0	0	0	0	FR3	0	R1170J
1384.702	0.0	1349985	WORD_OFF	n/a	n/a	FROG	12	0	12	[0, 0, 0]	n/a	0	0	0	n/a	n/a	0.0	0	0	0	FR3	0	R1170J
1384.702	0.0	1349985	DISTRACT_START	n/a	n/a	n/a	-999	0	12	[0, 0, 0]	n/a	0	0	0	n/a	n/a	0.0	0	0	0	FR3	0	R1170J
1384.702	0.016	1349985	START	n/a	n/a	n/a	-999	0	12	[-999, -999, -999]	n/a	0	0	0	n/a	n/a	0.0	0	0	0	FR3	0	R1170J
1384.718	7.084	1350001	PROB	7.062	n/a	n/a	-999	0	12	[1, 2, 4]	7	0	0	0	n/a	n/a	0.0	0	0	0	FR3	0	R1170J
1391.802	2.968	1357085	PROB	2.929	n/a	n/a	-999	0	12	[1, 6, 4]	11	0	0	0	n/a	n/a	0.0	0	0	0	FR3	0	R1170J
1394.77	2.95	1360052	PROB	2.914	n/a	n/a	-999	0	12	[4, 1, 6]	11	0	0	0	n/a	n/a	0.0	0	0	0	FR3	0	R1170J
1397.72	3.317	1363002	PROB	3.284	n/a	n/a	-999	0	12	[4, 6, 9]	19	0	0	0	n/a	n/a	0.0	0	0	0	FR3	0	R1170J
1401.037	4.056	1366319	PROB	4.056	n/a	n/a	-999	0	12	[9, 4, 7]	20	0	0	0	n/a	n/a	0.0	0	0	0	FR3	0	R1170J
1405.093	0.012	1370375	STOP	n/a	n/a	n/a	-999	0	12	[-999, -999, -999]	n/a	0	0	0	n/a	n/a	0.0	0	0	0	FR3	0	R1170J
1405.105	0.682	1370387	DISTRACT_END	n/a	n/a	n/a	-999	0	12	[0, 0, 0]	n/a	0	0	0	n/a	n/a	0.0	0	0	0	FR3	0	R1170J
1405.787	0.5	1371069	RETRIEVAL_ORIENT	n/a	n/a	n/a	-999	0	12	[0, 0, 0]	n/a	0	0	0	n/a	n/a	0.0	0	0	0	FR3	0	R1170J
1406.305	0.634	1371587	REC_START	n/a	n/a	n/a	-999	0	12	[0, 0, 0]	n/a	0	0	0	n/a	n/a	0.0	0	0	0	FR3	0	R1170J
1406.939	12.667	1372221	REC_WORD	0.634	n/a	FROG	12	1	12	[0, 0, 0]	n/a	0	0	0	n/a	n/a	0.0	0	0	0	FR3	0	R1170J
1419.606	1.463	1384888	REC_WORD_VV	13.301	n/a	<>	-999	0	12	[0, 0, 0]	n/a	0	0	0	n/a	n/a	0.0	0	0	0	FR3	0	R1170J
1421.069	5.819	1386351	REC_WORD	14.764	n/a	HOSE	11	1	12	[0, 0, 0]	n/a	0	0	0	n/a	n/a	0.0	0	0	0	FR3	0	R1170J
1426.888	9.425	1392170	REC_WORD	20.583	n/a	DISNEY	-999	0	12	[0, 0, 0]	n/a	0	0	0	n/a	n/a	0.0	0	0	0	FR3	0	R1170J
1436.313	5.797	1401595	REC_END	n/a	n/a	n/a	-999	0	12	[0, 0, 0]	n/a	0	0	0	n/a	n/a	0.0	0	0	0	FR3	0	R1170J
1442.11	0.5	1407392	TRIAL	n/a	n/a	n/a	-999	0	13	[0, 0, 0]	n/a	0	0	0	n/a	n/a	0.0	0	0	0	FR3	0	R1170J
1442.61	10.0	1407892	COUNTDOWN_START	n/a	n/a	n/a	-999	0	13	[0, 0, 0]	n/a	0	0	0	n/a	n/a	0.0	0	0	0	FR3	0	R1170J
1453.038	0.005	1418320	COUNTDOWN_END	n/a	n/a	n/a	-999	0	13	[0, 0, 0]	n/a	0	0	0	n/a	n/a	0.0	0	0	0	FR3	0	R1170J
1453.043	1.6	1418325	ORIENT	n/a	n/a	n/a	-999	0	13	[0, 0, 0]	n/a	0	0	0	n/a	n/a	0.0	0	0	0	FR3	0	R1170J
1454.661	1.8	1419943	ORIENT_OFF	n/a	n/a	n/a	-999	0	13	[0, 0, 0]	n/a	0	0	0	n/a	n/a	0.0	0	0	0	FR3	0	R1170J
1456.461	1.6	1421743	WORD	n/a	wordpools/wordpool.txt	WAVE	1	0	13	[0, 0, 0]	n/a	0	0	0	n/a	n/a	0.0	0	0	0	FR3	0	R1170J
1458.079	0.848	1423361	WORD_OFF	n/a	n/a	WAVE	1	0	13	[0, 0, 0]	n/a	0	0	0	n/a	n/a	0.0	0	0	0	FR3	0	R1170J
1458.927	1.6	1424209	WORD	n/a	wordpools/wordpool.txt	HOOF	2	0	13	[0, 0, 0]	n/a	0	0	0	n/a	n/a	0.0	0	0	0	FR3	0	R1170J
1460.544	0.767	1425826	WORD_OFF	n/a	n/a	HOOF	2	0	13	[0, 0, 0]	n/a	0	0	0	n/a	n/a	0.0	0	0	0	FR3	0	R1170J
1461.311	1.6	1426593	WORD	n/a	wordpools/wordpool.txt	HORSE	3	1	13	[0, 0, 0]	n/a	0	0	0	n/a	n/a	0.0	0	0	0	FR3	0	R1170J
1462.928	0.85	1428210	WORD_OFF	n/a	n/a	HORSE	3	0	13	[0, 0, 0]	n/a	0	0	0	n/a	n/a	0.0	0	0	0	FR3	0	R1170J
1463.778	1.6	1429060	WORD	n/a	wordpools/wordpool.txt	SHIP	4	1	13	[0, 0, 0]	n/a	0	0	0	n/a	n/a	0.0	0	0	0	FR3	0	R1170J
1465.395	0.768	1430677	WORD_OFF	n/a	n/a	SHIP	4	0	13	[0, 0, 0]	n/a	0	0	0	n/a	n/a	0.0	0	0	0	FR3	0	R1170J
1466.163	1.6	1431445	WORD	n/a	wordpools/wordpool.txt	MOON	5	0	13	[0, 0, 0]	n/a	0	0	0	n/a	n/a	0.0	0	0	0	FR3	0	R1170J
1467.779	0.767	1433061	WORD_OFF	n/a	n/a	MOON	5	0	13	[0, 0, 0]	n/a	0	0	0	n/a	n/a	0.0	0	0	0	FR3	0	R1170J
1468.546	1.6	1433828	WORD	n/a	wordpools/wordpool.txt	CORD	6	0	13	[0, 0, 0]	n/a	0	0	0	n/a	n/a	0.0	0	0	0	FR3	0	R1170J
1470.163	0.833	1435445	WORD_OFF	n/a	n/a	CORD	6	0	13	[0, 0, 0]	n/a	0	0	0	n/a	n/a	0.0	0	0	0	FR3	0	R1170J
1470.996	1.6	1436278	WORD	n/a	wordpools/wordpool.txt	BEE	7	1	13	[0, 0, 0]	n/a	0	0	0	n/a	n/a	0.0	0	0	0	FR3	0	R1170J
1472.613	0.983	1437895	WORD_OFF	n/a	n/a	BEE	7	0	13	[0, 0, 0]	n/a	0	0	0	n/a	n/a	0.0	0	0	0	FR3	0	R1170J
1473.596	1.6	1438878	WORD	n/a	wordpools/wordpool.txt	JUDGE	8	1	13	[0, 0, 0]	n/a	0	0	0	n/a	n/a	0.0	0	0	0	FR3	0	R1170J
1475.213	0.851	1440495	WORD_OFF	n/a	n/a	JUDGE	8	0	13	[0, 0, 0]	n/a	0	0	0	n/a	n/a	0.0	0	0	0	FR3	0	R1170J
1476.064	1.6	1441346	WORD	n/a	wordpools/wordpool.txt	SNOW	9	0	13	[0, 0, 0]	n/a	0	0	0	n/a	n/a	0.0	0	0	0	FR3	0	R1170J
1477.68	0.967	1442962	WORD_OFF	n/a	n/a	SNOW	9	0	13	[0, 0, 0]	n/a	0	0	0	n/a	n/a	0.0	0	0	0	FR3	0	R1170J
1478.647	1.6	1443929	WORD	n/a	wordpools/wordpool.txt	PEARL	10	0	13	[0, 0, 0]	n/a	0	0	0	n/a	n/a	0.0	0	0	0	FR3	0	R1170J
1480.264	0.783	1445546	WORD_OFF	n/a	n/a	PEARL	10	0	13	[0, 0, 0]	n/a	0	0	0	n/a	n/a	0.0	0	0	0	FR3	0	R1170J
1481.047	1.6	1446329	WORD	n/a	wordpools/wordpool.txt	FILM	11	0	13	[0, 0, 0]	n/a	0	0	0	n/a	n/a	0.0	0	0	0	FR3	0	R1170J
1482.664	0.884	1447946	WORD_OFF	n/a	n/a	FILM	11	0	13	[0, 0, 0]	n/a	0	0	0	n/a	n/a	0.0	0	0	0	FR3	0	R1170J
1483.548	1.6	1448830	WORD	n/a	wordpools/wordpool.txt	MOTH	12	0	13	[0, 0, 0]	n/a	0	0	0	n/a	n/a	0.0	0	0	0	FR3	0	R1170J
1485.166	0.0	1450448	WORD_OFF	n/a	n/a	MOTH	12	0	13	[0, 0, 0]	n/a	0	0	0	n/a	n/a	0.0	0	0	0	FR3	0	R1170J
1485.166	0.0	1450448	DISTRACT_START	n/a	n/a	n/a	-999	0	13	[0, 0, 0]	n/a	0	0	0	n/a	n/a	0.0	0	0	0	FR3	0	R1170J
1485.166	0.016	1450448	START	n/a	n/a	n/a	-999	0	13	[-999, -999, -999]	n/a	0	0	0	n/a	n/a	0.0	0	0	0	FR3	0	R1170J
1485.182	6.333	1450464	PROB	6.299	n/a	n/a	-999	0	13	[9, 2, 4]	15	0	0	0	n/a	n/a	0.0	0	0	0	FR3	0	R1170J
1491.515	5.918	1456797	PROB	5.884	n/a	n/a	-999	0	13	[3, 4, 9]	16	0	0	0	n/a	n/a	0.0	0	0	0	FR3	0	R1170J
1497.433	5.2	1462715	PROB	5.166	n/a	n/a	-999	0	13	[5, 9, 8]	22	0	0	0	n/a	n/a	0.0	0	0	0	FR3	0	R1170J
1502.633	4.398	1467915	PROB	4.398	n/a	n/a	-999	0	13	[9, 9, 9]	27	0	0	0	n/a	n/a	0.0	0	0	0	FR3	0	R1170J
1507.031	0.02	1472313	STOP	n/a	n/a	n/a	-999	0	13	[-999, -999, -999]	n/a	0	0	0	n/a	n/a	0.0	0	0	0	FR3	0	R1170J
1507.051	0.533	1472333	DISTRACT_END	n/a	n/a	n/a	-999	0	13	[0, 0, 0]	n/a	0	0	0	n/a	n/a	0.0	0	0	0	FR3	0	R1170J
1507.584	0.5	1472866	RETRIEVAL_ORIENT	n/a	n/a	n/a	-999	0	13	[0, 0, 0]	n/a	0	0	0	n/a	n/a	0.0	0	0	0	FR3	0	R1170J
1508.103	0.435	1473385	REC_START	n/a	n/a	n/a	-999	0	13	[0, 0, 0]	n/a	0	0	0	n/a	n/a	0.0	0	0	0	FR3	0	R1170J
1508.538	0.902	1473820	REC_WORD	0.435	n/a	HORSE	3	1	13	[0, 0, 0]	n/a	0	0	0	n/a	n/a	0.0	0	0	0	FR3	0	R1170J
1509.44	1.407	1474722	REC_WORD	1.337	n/a	SHIP	4	1	13	[0, 0, 0]	n/a	0	0	0	n/a	n/a	0.0	0	0	0	FR3	0	R1170J
1510.847	1.029	1476128	REC_WORD	2.744	n/a	BEE	7	1	13	[0, 0, 0]	n/a	0	0	0	n/a	n/a	0.0	0	0	0	FR3	0	R1170J
1511.876	2.352	1477157	REC_WORD	3.773	n/a	JUDGE	8	1	13	[0, 0, 0]	n/a	0	0	0	n/a	n/a	0.0	0	0	0	FR3	0	R1170J
1514.228	23.886	1479509	REC_WORD_VV	6.125	n/a	<>	-999	0	13	[0, 0, 0]	n/a	0	0	0	n/a	n/a	0.0	0	0	0	FR3	0	R1170J
1538.114	7.225	1503395	REC_END	n/a	n/a	n/a	-999	0	13	[0, 0, 0]	n/a	0	0	0	n/a	n/a	0.0	0	0	0	FR3	0	R1170J
1545.339	0.5	1510620	TRIAL	n/a	n/a	n/a	-999	0	14	[0, 0, 0]	n/a	0	0	0	n/a	n/a	0.0	0	0	0	FR3	0	R1170J
1545.839	10.0	1511120	COUNTDOWN_START	n/a	n/a	n/a	-999	0	14	[0, 0, 0]	n/a	0	0	0	n/a	n/a	0.0	0	0	0	FR3	0	R1170J
1556.267	0.007	1521548	COUNTDOWN_END	n/a	n/a	n/a	-999	0	14	[0, 0, 0]	n/a	0	0	0	n/a	n/a	0.0	0	0	0	FR3	0	R1170J
1556.274	1.6	1521555	ORIENT	n/a	n/a	n/a	-999	0	14	[0, 0, 0]	n/a	0	0	0	n/a	n/a	0.0	0	0	0	FR3	0	R1170J
1557.891	2.05	1523172	ORIENT_OFF	n/a	n/a	n/a	-999	0	14	[0, 0, 0]	n/a	0	0	0	n/a	n/a	0.0	0	0	0	FR3	0	R1170J
1559.941	1.6	1525222	WORD	n/a	wordpools/wordpool.txt	FOX	1	1	14	[0, 0, 0]	n/a	0	0	0	n/a	n/a	0.0	0	0	0	FR3	0	R1170J
1561.558	0.883	1526839	WORD_OFF	n/a	n/a	FOX	1	0	14	[0, 0, 0]	n/a	0	0	0	n/a	n/a	0.0	0	0	0	FR3	0	R1170J
1562.441	1.6	1527722	WORD	n/a	wordpools/wordpool.txt	SPRING	2	0	14	[0, 0, 0]	n/a	0	0	0	n/a	n/a	0.0	0	0	0	FR3	0	R1170J
1564.059	0.866	1529340	WORD_OFF	n/a	n/a	SPRING	2	0	14	[0, 0, 0]	n/a	0	0	0	n/a	n/a	0.0	0	0	0	FR3	0	R1170J
1564.925	1.6	1530206	WORD	n/a	wordpools/wordpool.txt	CUP	3	0	14	[0, 0, 0]	n/a	0	0	0	n/a	n/a	0.0	0	0	0	FR3	0	R1170J
1566.542	0.967	1531823	WORD_OFF	n/a	n/a	CUP	3	0	14	[0, 0, 0]	n/a	0	0	0	n/a	n/a	0.0	0	0	0	FR3	0	R1170J
1567.509	1.6	1532790	WORD	n/a	wordpools/wordpool.txt	MOUSE	4	0	14	[0, 0, 0]	n/a	0	0	0	n/a	n/a	0.0	0	0	0	FR3	0	R1170J
1569.126	1.0	1534407	WORD_OFF	n/a	n/a	MOUSE	4	0	14	[0, 0, 0]	n/a	0	0	0	n/a	n/a	0.0	0	0	0	FR3	0	R1170J
1570.126	1.6	1535407	WORD	n/a	wordpools/wordpool.txt	SHARK	5	0	14	[0, 0, 0]	n/a	0	0	0	n/a	n/a	0.0	0	0	0	FR3	0	R1170J
1571.742	0.784	1537023	WORD_OFF	n/a	n/a	SHARK	5	0	14	[0, 0, 0]	n/a	0	0	0	n/a	n/a	0.0	0	0	0	FR3	0	R1170J
1572.526	1.6	1537807	WORD	n/a	wordpools/wordpool.txt	FLEA	6	0	14	[0, 0, 0]	n/a	0	0	0	n/a	n/a	0.0	0	0	0	FR3	0	R1170J
1574.127	0.782	1539408	WORD_OFF	n/a	n/a	FLEA	6	0	14	[0, 0, 0]	n/a	0	0	0	n/a	n/a	0.0	0	0	0	FR3	0	R1170J
1574.909	1.6	1540190	WORD	n/a	wordpools/wordpool.txt	MOLE	7	0	14	[0, 0, 0]	n/a	0	0	0	n/a	n/a	0.0	0	0	0	FR3	0	R1170J
1576.526	1.001	1541807	WORD_OFF	n/a	n/a	MOLE	7	0	14	[0, 0, 0]	n/a	0	0	0	n/a	n/a	0.0	0	0	0	FR3	0	R1170J
1577.527	1.6	1542808	WORD	n/a	wordpools/wordpool.txt	MOUTH	8	0	14	[0, 0, 0]	n/a	0	0	0	n/a	n/a	0.0	0	0	0	FR3	0	R1170J
1579.144	0.799	1544425	WORD_OFF	n/a	n/a	MOUTH	8	0	14	[0, 0, 0]	n/a	0	0	0	n/a	n/a	0.0	0	0	0	FR3	0	R1170J
1579.943	1.6	1545224	WORD	n/a	wordpools/wordpool.txt	JAR	9	0	14	[0, 0, 0]	n/a	0	0	0	n/a	n/a	0.0	0	0	0	FR3	0	R1170J
1581.56	0.8	1546841	WORD_OFF	n/a	n/a	JAR	9	0	14	[0, 0, 0]	n/a	0	0	0	n/a	n/a	0.0	0	0	0	FR3	0	R1170J
1582.36	1.6	1547641	WORD	n/a	wordpools/wordpool.txt	TEETH	10	0	14	[0, 0, 0]	n/a	0	0	0	n/a	n/a	0.0	0	0	0	FR3	0	R1170J
1583.977	0.784	1549258	WORD_OFF	n/a	n/a	TEETH	10	0	14	[0, 0, 0]	n/a	0	0	0	n/a	n/a	0.0	0	0	0	FR3	0	R1170J
1584.761	1.6	1550042	WORD	n/a	wordpools/wordpool.txt	WOLF	11	1	14	[0, 0, 0]	n/a	0	0	0	n/a	n/a	0.0	0	0	0	FR3	0	R1170J
1586.378	0.85	1551659	WORD_OFF	n/a	n/a	WOLF	11	0	14	[0, 0, 0]	n/a	0	0	0	n/a	n/a	0.0	0	0	0	FR3	0	R1170J
1587.228	1.6	1552509	WORD	n/a	wordpools/wordpool.txt	MILK	12	0	14	[0, 0, 0]	n/a	0	0	0	n/a	n/a	0.0	0	0	0	FR3	0	R1170J
1588.845	0.0	1554126	WORD_OFF	n/a	n/a	MILK	12	0	14	[0, 0, 0]	n/a	0	0	0	n/a	n/a	0.0	0	0	0	FR3	0	R1170J
1588.845	0.0	1554126	DISTRACT_START	n/a	n/a	n/a	-999	0	14	[0, 0, 0]	n/a	0	0	0	n/a	n/a	0.0	0	0	0	FR3	0	R1170J
1588.845	0.016	1554126	START	n/a	n/a	n/a	-999	0	14	[-999, -999, -999]	n/a	0	0	0	n/a	n/a	0.0	0	0	0	FR3	0	R1170J
1588.861	5.151	1554142	PROB	5.119	n/a	n/a	-999	0	14	[2, 4, 4]	10	0	0	0	n/a	n/a	0.0	0	0	0	FR3	0	R1170J
1594.012	4.351	1559293	PROB	4.328	n/a	n/a	-999	0	14	[5, 7, 5]	17	0	0	0	n/a	n/a	0.0	0	0	0	FR3	0	R1170J
1598.363	10.591	1563644	PROB	10.591	n/a	n/a	-999	0	14	[9, 9, 8]	26	0	0	0	n/a	n/a	0.0	0	0	0	FR3	0	R1170J
1608.954	0.009	1574235	STOP	n/a	n/a	n/a	-999	0	14	[-999, -999, -999]	n/a	0	0	0	n/a	n/a	0.0	0	0	0	FR3	0	R1170J
1608.963	0.684	1574244	DISTRACT_END	n/a	n/a	n/a	-999	0	14	[0, 0, 0]	n/a	0	0	0	n/a	n/a	0.0	0	0	0	FR3	0	R1170J
1609.647	0.5	1574928	RETRIEVAL_ORIENT	n/a	n/a	n/a	-999	0	14	[0, 0, 0]	n/a	0	0	0	n/a	n/a	0.0	0	0	0	FR3	0	R1170J
1610.165	0.53	1575446	REC_START	n/a	n/a	n/a	-999	0	14	[0, 0, 0]	n/a	0	0	0	n/a	n/a	0.0	0	0	0	FR3	0	R1170J
1610.695	1.361	1575976	REC_WORD	0.53	n/a	FOX	1	1	14	[0, 0, 0]	n/a	0	0	0	n/a	n/a	0.0	0	0	0	FR3	0	R1170J
1612.056	1.542	1577337	REC_WORD	1.891	n/a	BRING	-999	0	14	[0, 0, 0]	n/a	0	0	0	n/a	n/a	0.0	0	0	0	FR3	0	R1170J
1613.598	26.58	1578879	REC_WORD	3.433	n/a	WOLF	11	1	14	[0, 0, 0]	n/a	0	0	0	n/a	n/a	0.0	0	0	0	FR3	0	R1170J
1640.178	5.807	1605458	REC_END	n/a	n/a	n/a	-999	0	14	[0, 0, 0]	n/a	0	0	0	n/a	n/a	0.0	0	0	0	FR3	0	R1170J
1645.985	0.5	1611265	TRIAL	n/a	n/a	n/a	-999	0	15	[0, 0, 0]	n/a	0	1	0	n/a	n/a	0.0	0	0	0	FR3	0	R1170J
1646.485	10.0	1611765	COUNTDOWN_START	n/a	n/a	n/a	-999	0	15	[0, 0, 0]	n/a	0	1	0	n/a	n/a	0.0	0	0	0	FR3	0	R1170J
1656.913	0.007	1622193	COUNTDOWN_END	n/a	n/a	n/a	-999	0	15	[0, 0, 0]	n/a	0	1	0	n/a	n/a	0.0	0	0	0	FR3	0	R1170J
1656.92	1.6	1622200	ORIENT	n/a	n/a	n/a	-999	0	15	[0, 0, 0]	n/a	0	1	0	n/a	n/a	0.0	0	0	0	FR3	0	R1170J
1658.537	1.833	1623817	ORIENT_OFF	n/a	n/a	n/a	-999	0	15	[0, 0, 0]	n/a	0	1	0	n/a	n/a	0.0	0	0	0	FR3	0	R1170J
1660.37	1.6	1625650	WORD	n/a	wordpools/wordpool.txt	SOUP	1	0	15	[0, 0, 0]	n/a	0	1	0	n/a	n/a	0.0	0	0	0	FR3	0	R1170J
1661.987	0.784	1627267	WORD_OFF	n/a	n/a	SOUP	1	0	15	[0, 0, 0]	n/a	0	1	0	n/a	n/a	0.0	0	0	0	FR3	0	R1170J
1662.771	1.6	1628051	WORD	n/a	wordpools/wordpool.txt	CAKE	2	0	15	[0, 0, 0]	n/a	0	1	0	n/a	n/a	0.0	0	0	0	FR3	0	R1170J
1664.388	0.983	1629668	WORD_OFF	n/a	n/a	CAKE	2	0	15	[0, 0, 0]	n/a	0	1	0	n/a	n/a	0.0	0	0	0	FR3	0	R1170J
1665.371	1.6	1630651	WORD	n/a	wordpools/wordpool.txt	EGG	3	0	15	[0, 0, 0]	n/a	0	1	0	n/a	n/a	0.0	0	0	0	FR3	0	R1170J
1666.988	0.833	1632268	WORD_OFF	n/a	n/a	EGG	3	0	15	[0, 0, 0]	n/a	0	1	0	n/a	n/a	0.0	0	0	0	FR3	0	R1170J
1667.821	1.6	1633101	WORD	n/a	wordpools/wordpool.txt	SHEEP	4	0	15	[0, 0, 0]	n/a	0	1	0	n/a	n/a	0.0	0	0	0	FR3	0	R1170J
1669.438	0.783	1634718	WORD_OFF	n/a	n/a	SHEEP	4	0	15	[0, 0, 0]	n/a	0	1	0	n/a	n/a	0.0	0	0	0	FR3	0	R1170J
1670.221	1.6	1635501	WORD	n/a	wordpools/wordpool.txt	WORLD	5	0	15	[0, 0, 0]	n/a	0	1	0	n/a	n/a	0.0	0	0	0	FR3	0	R1170J
1671.838	0.967	1637118	WORD_OFF	n/a	n/a	WORLD	5	0	15	[0, 0, 0]	n/a	0	1	0	n/a	n/a	0.0	0	0	0	FR3	0	R1170J
1672.805	1.6	1638085	WORD	n/a	wordpools/wordpool.txt	TOAST	6	0	15	[0, 0, 0]	n/a	0	1	0	n/a	n/a	0.0	0	0	0	FR3	0	R1170J
1674.422	0.834	1639702	WORD_OFF	n/a	n/a	TOAST	6	0	15	[0, 0, 0]	n/a	0	1	0	n/a	n/a	0.0	0	0	0	FR3	0	R1170J
1675.256	1.6	1640536	WORD	n/a	wordpools/wordpool.txt	PEAR	7	1	15	[0, 0, 0]	n/a	0	1	0	n/a	n/a	0.0	0	0	0	FR3	0	R1170J
1676.814	0.0	1642094	STIM_ON	n/a	n/a	PEAR	7	1	15	[0, 0, 0]	n/a	1	1	500	L7ST7	L7ST8	250.0	200	100	300	FR3	0	R1170J
1676.873	0.441	1642153	WORD_OFF	n/a	n/a	PEAR	7	0	15	[0, 0, 0]	n/a	1	1	500	L7ST7	L7ST8	250.0	200	100	300	FR3	0	R1170J
1677.314	0.559	1642594	STIM_OFF	n/a	n/a	n/a	7	0	15	[0, 0, 0]	n/a	0	1	500	L7ST7	L7ST8	250.0	200	100	300	FR3	0	R1170J
1677.873	1.6	1643153	WORD	n/a	wordpools/wordpool.txt	CORN	8	0	15	[0, 0, 0]	n/a	0	1	0	n/a	n/a	0.0	0	0	0	FR3	0	R1170J
1679.489	0.95	1644769	WORD_OFF	n/a	n/a	CORN	8	0	15	[0, 0, 0]	n/a	0	1	0	n/a	n/a	0.0	0	0	0	FR3	0	R1170J
1680.439	1.6	1645719	WORD	n/a	wordpools/wordpool.txt	FENCE	9	0	15	[0, 0, 0]	n/a	0	1	0	n/a	n/a	0.0	0	0	0	FR3	0	R1170J
1682.057	0.849	1647337	WORD_OFF	n/a	n/a	FENCE	9	0	15	[0, 0, 0]	n/a	0	1	0	n/a	n/a	0.0	0	0	0	FR3	0	R1170J
1682.906	1.6	1648186	WORD	n/a	wordpools/wordpool.txt	YARD	10	1	15	[0, 0, 0]	n/a	0	1	0	n/a	n/a	0.0	0	0	0	FR3	0	R1170J
1684.524	0.833	1649804	WORD_OFF	n/a	n/a	YARD	10	0	15	[0, 0, 0]	n/a	0	1	0	n/a	n/a	0.0	0	0	0	FR3	0	R1170J
1685.357	1.6	1650637	WORD	n/a	wordpools/wordpool.txt	VASE	11	1	15	[0, 0, 0]	n/a	0	1	0	n/a	n/a	0.0	0	0	0	FR3	0	R1170J
1686.974	1.0	1652254	WORD_OFF	n/a	n/a	VASE	11	0	15	[0, 0, 0]	n/a	0	1	0	n/a	n/a	0.0	0	0	0	FR3	0	R1170J
1687.974	1.6	1653254	WORD	n/a	wordpools/wordpool.txt	BREAD	12	1	15	[0, 0, 0]	n/a	0	1	0	n/a	n/a	0.0	0	0	0	FR3	0	R1170J
1689.536	0.0	1654816	STIM_ON	n/a	n/a	BREAD	12	1	15	[0, 0, 0]	n/a	1	1	500	L7ST7	L7ST8	250.0	200	100	300	FR3	0	R1170J
1689.591	0.0	1654871	WORD_OFF	n/a	n/a	BREAD	12	0	15	[0, 0, 0]	n/a	1	1	500	L7ST7	L7ST8	250.0	200	100	300	FR3	0	R1170J
1689.591	0.0	1654871	DISTRACT_START	n/a	n/a	n/a	-999	0	15	[0, 0, 0]	n/a	1	1	500	L7ST7	L7ST8	250.0	200	100	300	FR3	0	R1170J
1689.591	0.016	1654871	START	n/a	n/a	n/a	-999	0	15	[-999, -999, -999]	n/a	0	1	0	n/a	n/a	0.0	0	0	0	FR3	0	R1170J
1689.607	0.429	1654887	PROB	5.498	n/a	n/a	-999	0	15	[5, 3, 1]	9	0	1	0	n/a	n/a	0.0	0	0	0	FR3	0	R1170J
1690.036	5.106	1655316	STIM_OFF	n/a	n/a	n/a	-999	0	15	[0, 0, 0]	n/a	0	1	500	L7ST7	L7ST8	250.0	200	100	300	FR3	0	R1170J
1695.142	3.8	1660422	PROB	3.769	n/a	n/a	-999	0	15	[6, 6, 1]	13	0	1	0	n/a	n/a	0.0	0	0	0	FR3	0	R1170J
1698.942	2.517	1664222	PROB	2.49	n/a	n/a	-999	0	15	[1, 4, 6]	11	0	1	0	n/a	n/a	0.0	0	0	0	FR3	0	R1170J
1701.459	3.117	1666739	PROB	3.084	n/a	n/a	-999	0	15	[3, 6, 3]	12	0	1	0	n/a	n/a	0.0	0	0	0	FR3	0	R1170J
1704.576	3.101	1669856	PROB	3.079	n/a	n/a	-999	0	15	[5, 2, 2]	9	0	1	0	n/a	n/a	0.0	0	0	0	FR3	0	R1170J
1707.677	3.578	1672957	PROB	3.578	n/a	n/a	-999	0	15	[4, 2, 1]	7	0	1	0	n/a	n/a	0.0	0	0	0	FR3	0	R1170J
1711.255	0.022	1676535	STOP	n/a	n/a	n/a	-999	0	15	[-999, -999, -999]	n/a	0	1	0	n/a	n/a	0.0	0	0	0	FR3	0	R1170J
1711.277	0.517	1676557	DISTRACT_END	n/a	n/a	n/a	-999	0	15	[0, 0, 0]	n/a	0	1	0	n/a	n/a	0.0	0	0	0	FR3	0	R1170J
1711.794	0.5	1677074	RETRIEVAL_ORIENT	n/a	n/a	n/a	-999	0	15	[0, 0, 0]	n/a	0	1	0	n/a	n/a	0.0	0	0	0	FR3	0	R1170J
1712.311	0.728	1677591	REC_START	n/a	n/a	n/a	-999	0	15	[0, 0, 0]	n/a	0	1	0	n/a	n/a	0.0	0	0	0	FR3	0	R1170J
1713.039	1.016	1678319	REC_WORD	0.728	n/a	VASE	11	1	15	[0, 0, 0]	n/a	0	1	0	n/a	n/a	0.0	0	0	0	FR3	0	R1170J
1714.055	1.305	1679335	REC_WORD	1.744	n/a	YARD	10	1	15	[0, 0, 0]	n/a	0	1	0	n/a	n/a	0.0	0	0	0	FR3	0	R1170J
1715.36	5.592	1680640	REC_WORD	3.049	n/a	BREAD	12	1	15	[0, 0, 0]	n/a	0	1	0	n/a	n/a	0.0	0	0	0	FR3	0	R1170J
1720.952	21.367	1686232	REC_WORD	8.641	n/a	PEAR	7	1	15	[0, 0, 0]	n/a	0	1	0	n/a	n/a	0.0	0	0	0	FR3	0	R1170J
1742.319	5.747	1707599	REC_END	n/a	n/a	n/a	-999	0	15	[0, 0, 0]	n/a	0	1	0	n/a	n/a	0.0	0	0	0	FR3	0	R1170J
1748.066	0.5	1713345	TRIAL	n/a	n/a	n/a	-999	0	16	[0, 0, 0]	n/a	0	1	0	n/a	n/a	0.0	0	0	0	FR3	0	R1170J
1748.566	10.0	1713845	COUNTDOWN_START	n/a	n/a	n/a	-999	0	16	[0, 0, 0]	n/a	0	1	0	n/a	n/a	0.0	0	0	0	FR3	0	R1170J
1758.994	0.005	1724273	COUNTDOWN_END	n/a	n/a	n/a	-999	0	16	[0, 0, 0]	n/a	0	1	0	n/a	n/a	0.0	0	0	0	FR3	0	R1170J
1758.999	1.6	1724278	ORIENT	n/a	n/a	n/a	-999	0	16	[0, 0, 0]	n/a	0	1	0	n/a	n/a	0.0	0	0	0	FR3	0	R1170J
1760.616	2.084	1725895	ORIENT_OFF	n/a	n/a	n/a	-999	0	16	[0, 0, 0]	n/a	0	1	0	n/a	n/a	0.0	0	0	0	FR3	0	R1170J
1762.7	1.6	1727979	WORD	n/a	wordpools/wordpool.txt	DESK	1	1	16	[0, 0, 0]	n/a	0	1	0	n/a	n/a	0.0	0	0	0	FR3	0	R1170J
1764.317	0.885	1729596	WORD_OFF	n/a	n/a	DESK	1	0	16	[0, 0, 0]	n/a	0	1	0	n/a	n/a	0.0	0	0	0	FR3	0	R1170J
1765.202	1.6	1730481	WORD	n/a	wordpools/wordpool.txt	GRAPE	2	1	16	[0, 0, 0]	n/a	0	1	0	n/a	n/a	0.0	0	0	0	FR3	0	R1170J
1766.817	0.784	1732096	WORD_OFF	n/a	n/a	GRAPE	2	0	16	[0, 0, 0]	n/a	0	1	0	n/a	n/a	0.0	0	0	0	FR3	0	R1170J
1767.601	1.6	1732880	WORD	n/a	wordpools/wordpool.txt	BOWL	3	0	16	[0, 0, 0]	n/a	0	1	0	n/a	n/a	0.0	0	0	0	FR3	0	R1170J
1769.217	0.952	1734496	WORD_OFF	n/a	n/a	BOWL	3	0	16	[0, 0, 0]	n/a	0	1	0	n/a	n/a	0.0	0	0	0	FR3	0	R1170J
1770.169	1.6	1735448	WORD	n/a	wordpools/wordpool.txt	SPARK	4	0	16	[0, 0, 0]	n/a	0	1	0	n/a	n/a	0.0	0	0	0	FR3	0	R1170J
1771.785	0.833	1737064	WORD_OFF	n/a	n/a	SPARK	4	0	16	[0, 0, 0]	n/a	0	1	0	n/a	n/a	0.0	0	0	0	FR3	0	R1170J
1772.618	1.6	1737897	WORD	n/a	wordpools/wordpool.txt	FOAM	5	0	16	[0, 0, 0]	n/a	0	1	0	n/a	n/a	0.0	0	0	0	FR3	0	R1170J
1774.179	0.0	1739458	STIM_ON	n/a	n/a	FOAM	5	0	16	[0, 0, 0]	n/a	1	1	500	L7ST7	L7ST8	250.0	200	100	300	FR3	0	R1170J
1774.235	0.444	1739514	WORD_OFF	n/a	n/a	FOAM	5	0	16	[0, 0, 0]	n/a	1	1	500	L7ST7	L7ST8	250.0	200	100	300	FR3	0	R1170J
1774.679	0.556	1739958	STIM_OFF	n/a	n/a	n/a	5	0	16	[0, 0, 0]	n/a	0	1	500	L7ST7	L7ST8	250.0	200	100	300	FR3	0	R1170J
1775.235	1.6	1740514	WORD	n/a	wordpools/wordpool.txt	KITE	6	0	16	[0, 0, 0]	n/a	0	1	0	n/a	n/a	0.0	0	0	0	FR3	0	R1170J
1776.803	0.0	1742082	STIM_ON	n/a	n/a	KITE	6	0	16	[0, 0, 0]	n/a	1	1	500	L7ST7	L7ST8	250.0	200	100	300	FR3	0	R1170J
1776.852	0.451	1742131	WORD_OFF	n/a	n/a	KITE	6	0	16	[0, 0, 0]	n/a	1	1	500	L7ST7	L7ST8	250.0	200	100	300	FR3	0	R1170J
1777.303	0.499	1742582	STIM_OFF	n/a	n/a	n/a	6	0	16	[0, 0, 0]	n/a	0	1	500	L7ST7	L7ST8	250.0	200	100	300	FR3	0	R1170J
1777.802	1.6	1743081	WORD	n/a	wordpools/wordpool.txt	FAN	7	0	16	[0, 0, 0]	n/a	0	1	0	n/a	n/a	0.0	0	0	0	FR3	0	R1170J
1779.37	0.0	1744649	STIM_ON	n/a	n/a	FAN	7	0	16	[0, 0, 0]	n/a	1	1	500	L7ST7	L7ST8	250.0	200	100	300	FR3	0	R1170J
1779.419	0.451	1744698	WORD_OFF	n/a	n/a	FAN	7	0	16	[0, 0, 0]	n/a	1	1	500	L7ST7	L7ST8	250.0	200	100	300	FR3	0	R1170J
1779.87	0.499	1745149	STIM_OFF	n/a	n/a	n/a	7	0	16	[0, 0, 0]	n/a	0	1	500	L7ST7	L7ST8	250.0	200	100	300	FR3	0	R1170J
1780.369	1.6	1745648	WORD	n/a	wordpools/wordpool.txt	SHOE	8	0	16	[0, 0, 0]	n/a	0	1	0	n/a	n/a	0.0	0	0	0	FR3	0	R1170J
1781.986	0.883	1747265	WORD_OFF	n/a	n/a	SHOE	8	0	16	[0, 0, 0]	n/a	0	1	0	n/a	n/a	0.0	0	0	0	FR3	0	R1170J
1782.869	1.6	1748148	WORD	n/a	wordpools/wordpool.txt	TANK	9	0	16	[0, 0, 0]	n/a	0	1	0	n/a	n/a	0.0	0	0	0	FR3	0	R1170J
1784.486	0.934	1749765	WORD_OFF	n/a	n/a	TANK	9	0	16	[0, 0, 0]	n/a	0	1	0	n/a	n/a	0.0	0	0	0	FR3	0	R1170J
1785.42	1.6	1750699	WORD	n/a	wordpools/wordpool.txt	FLOOR	10	0	16	[0, 0, 0]	n/a	0	1	0	n/a	n/a	0.0	0	0	0	FR3	0	R1170J
1787.037	0.833	1752316	WORD_OFF	n/a	n/a	FLOOR	10	0	16	[0, 0, 0]	n/a	0	1	0	n/a	n/a	0.0	0	0	0	FR3	0	R1170J
1787.87	1.6	1753149	WORD	n/a	wordpools/wordpool.txt	OAK	11	0	16	[0, 0, 0]	n/a	0	1	0	n/a	n/a	0.0	0	0	0	FR3	0	R1170J
1789.439	0.0	1754718	STIM_ON	n/a	n/a	OAK	11	0	16	[0, 0, 0]	n/a	1	1	500	L7ST7	L7ST8	250.0	200	100	300	FR3	0	R1170J
1789.487	0.452	1754766	WORD_OFF	n/a	n/a	OAK	11	0	16	[0, 0, 0]	n/a	1	1	500	L7ST7	L7ST8	250.0	200	100	300	FR3	0	R1170J
1789.939	0.498	1755218	STIM_OFF	n/a	n/a	n/a	11	0	16	[0, 0, 0]	n/a	0	1	500	L7ST7	L7ST8	250.0	200	100	300	FR3	0	R1170J
1790.437	1.6	1755716	WORD	n/a	wordpools/wordpool.txt	GLASS	12	0	16	[0, 0, 0]	n/a	0	1	0	n/a	n/a	0.0	0	0	0	FR3	0	R1170J
1792.054	0.0	1757333	WORD_OFF	n/a	n/a	GLASS	12	0	16	[0, 0, 0]	n/a	0	1	0	n/a	n/a	0.0	0	0	0	FR3	0	R1170J
1792.054	0.0	1757333	DISTRACT_START	n/a	n/a	n/a	-999	0	16	[0, 0, 0]	n/a	0	1	0	n/a	n/a	0.0	0	0	0	FR3	0	R1170J
1792.054	0.017	1757333	START	n/a	n/a	n/a	-999	0	16	[-999, -999, -999]	n/a	0	1	0	n/a	n/a	0.0	0	0	0	FR3	0	R1170J
1792.071	3.75	1757350	PROB	3.717	n/a	n/a	-999	0	16	[3, 3, 6]	12	0	1	0	n/a	n/a	0.0	0	0	0	FR3	0	R1170J
1795.821	8.635	1761100	PROB	8.597	n/a	n/a	-999	0	16	[2, 3, 3]	8	0	1	0	n/a	n/a	0.0	0	0	0	FR3	0	R1170J
1804.456	4.601	1769735	PROB	4.571	n/a	n/a	-999	0	16	[8, 3, 2]	13	0	1	0	n/a	n/a	0.0	0	0	0	FR3	0	R1170J
1809.057	4.905	1774336	PROB	4.905	n/a	n/a	-999	0	16	[1, 7, 4]	12	0	1	0	n/a	n/a	0.0	0	0	0	FR3	0	R1170J
1813.962	0.011	1779241	STOP	n/a	n/a	n/a	-999	0	16	[-999, -999, -999]	n/a	0	1	0	n/a	n/a	0.0	0	0	0	FR3	0	R1170J
1813.973	0.7	1779252	DISTRACT_END	n/a	n/a	n/a	-999	0	16	[0, 0, 0]	n/a	0	1	0	n/a	n/a	0.0	0	0	0	FR3	0	R1170J
1814.673	0.5	1779952	RETRIEVAL_ORIENT	n/a	n/a	n/a	-999	0	16	[0, 0, 0]	n/a	0	1	0	n/a	n/a	0.0	0	0	0	FR3	0	R1170J
1815.192	0.855	1780471	REC_START	n/a	n/a	n/a	-999	0	16	[0, 0, 0]	n/a	0	1	0	n/a	n/a	0.0	0	0	0	FR3	0	R1170J
1816.047	1.388	1781326	REC_WORD	0.855	n/a	DESK	1	1	16	[0, 0, 0]	n/a	0	1	0	n/a	n/a	0.0	0	0	0	FR3	0	R1170J
1817.435	27.769	1782714	REC_WORD	2.243	n/a	GRAPE	2	1	16	[0, 0, 0]	n/a	0	1	0	n/a	n/a	0.0	0	0	0	FR3	0	R1170J
1845.204	9.091	1810483	REC_END	n/a	n/a	n/a	-999	0	16	[0, 0, 0]	n/a	0	1	0	n/a	n/a	0.0	0	0	0	FR3	0	R1170J
1854.295	0.5	1819574	TRIAL	n/a	n/a	n/a	-999	0	17	[0, 0, 0]	n/a	0	0	0	n/a	n/a	0.0	0	0	0	FR3	0	R1170J
1854.795	10.0	1820074	COUNTDOWN_START	n/a	n/a	n/a	-999	0	17	[0, 0, 0]	n/a	0	0	0	n/a	n/a	0.0	0	0	0	FR3	0	R1170J
1865.223	0.007	1830501	COUNTDOWN_END	n/a	n/a	n/a	-999	0	17	[0, 0, 0]	n/a	0	0	0	n/a	n/a	0.0	0	0	0	FR3	0	R1170J
1865.23	1.6	1830508	ORIENT	n/a	n/a	n/a	-999	0	17	[0, 0, 0]	n/a	0	0	0	n/a	n/a	0.0	0	0	0	FR3	0	R1170J
1866.847	2.117	1832125	ORIENT_OFF	n/a	n/a	n/a	-999	0	17	[0, 0, 0]	n/a	0	0	0	n/a	n/a	0.0	0	0	0	FR3	0	R1170J
1868.964	1.6	1834242	WORD	n/a	wordpools/wordpool.txt	FUDGE	1	0	17	[0, 0, 0]	n/a	0	0	0	n/a	n/a	0.0	0	0	0	FR3	0	R1170J
1870.581	0.966	1835859	WORD_OFF	n/a	n/a	FUDGE	1	0	17	[0, 0, 0]	n/a	0	0	0	n/a	n/a	0.0	0	0	0	FR3	0	R1170J
1871.547	1.6	1836825	WORD	n/a	wordpools/wordpool.txt	SQUARE	2	0	17	[0, 0, 0]	n/a	0	0	0	n/a	n/a	0.0	0	0	0	FR3	0	R1170J
1873.165	0.9	1838443	WORD_OFF	n/a	n/a	SQUARE	2	0	17	[0, 0, 0]	n/a	0	0	0	n/a	n/a	0.0	0	0	0	FR3	0	R1170J
1874.065	1.6	1839343	WORD	n/a	wordpools/wordpool.txt	SNAIL	3	0	17	[0, 0, 0]	n/a	0	0	0	n/a	n/a	0.0	0	0	0	FR3	0	R1170J
1875.681	0.851	1840959	WORD_OFF	n/a	n/a	SNAIL	3	0	17	[0, 0, 0]	n/a	0	0	0	n/a	n/a	0.0	0	0	0	FR3	0	R1170J
1876.532	1.6	1841810	WORD	n/a	wordpools/wordpool.txt	PEACH	4	0	17	[0, 0, 0]	n/a	0	0	0	n/a	n/a	0.0	0	0	0	FR3	0	R1170J
1878.15	0.949	1843428	WORD_OFF	n/a	n/a	PEACH	4	0	17	[0, 0, 0]	n/a	0	0	0	n/a	n/a	0.0	0	0	0	FR3	0	R1170J
1879.099	1.6	1844377	WORD	n/a	wordpools/wordpool.txt	CLOCK	5	0	17	[0, 0, 0]	n/a	0	0	0	n/a	n/a	0.0	0	0	0	FR3	0	R1170J
1880.715	0.85	1845993	WORD_OFF	n/a	n/a	CLOCK	5	0	17	[0, 0, 0]	n/a	0	0	0	n/a	n/a	0.0	0	0	0	FR3	0	R1170J
1881.565	1.6	1846843	WORD	n/a	wordpools/wordpool.txt	BOMB	6	0	17	[0, 0, 0]	n/a	0	0	0	n/a	n/a	0.0	0	0	0	FR3	0	R1170J
1883.183	0.783	1848461	WORD_OFF	n/a	n/a	BOMB	6	0	17	[0, 0, 0]	n/a	0	0	0	n/a	n/a	0.0	0	0	0	FR3	0	R1170J
1883.966	1.6	1849244	WORD	n/a	wordpools/wordpool.txt	STRING	7	0	17	[0, 0, 0]	n/a	0	0	0	n/a	n/a	0.0	0	0	0	FR3	0	R1170J
1885.583	0.917	1850861	WORD_OFF	n/a	n/a	STRING	7	0	17	[0, 0, 0]	n/a	0	0	0	n/a	n/a	0.0	0	0	0	FR3	0	R1170J
1886.5	1.6	1851778	WORD	n/a	wordpools/wordpool.txt	DOG	8	0	17	[0, 0, 0]	n/a	0	0	0	n/a	n/a	0.0	0	0	0	FR3	0	R1170J
1888.117	1.0	1853395	WORD_OFF	n/a	n/a	DOG	8	0	17	[0, 0, 0]	n/a	0	0	0	n/a	n/a	0.0	0	0	0	FR3	0	R1170J
1889.117	1.6	1854395	WORD	n/a	wordpools/wordpool.txt	WOOD	9	0	17	[0, 0, 0]	n/a	0	0	0	n/a	n/a	0.0	0	0	0	FR3	0	R1170J
1890.733	0.984	1856011	WORD_OFF	n/a	n/a	WOOD	9	0	17	[0, 0, 0]	n/a	0	0	0	n/a	n/a	0.0	0	0	0	FR3	0	R1170J
1891.717	1.6	1856995	WORD	n/a	wordpools/wordpool.txt	EAR	10	0	17	[0, 0, 0]	n/a	0	0	0	n/a	n/a	0.0	0	0	0	FR3	0	R1170J
1893.334	0.966	1858612	WORD_OFF	n/a	n/a	EAR	10	0	17	[0, 0, 0]	n/a	0	0	0	n/a	n/a	0.0	0	0	0	FR3	0	R1170J
1894.3	1.6	1859578	WORD	n/a	wordpools/wordpool.txt	RAKE	11	0	17	[0, 0, 0]	n/a	0	0	0	n/a	n/a	0.0	0	0	0	FR3	0	R1170J
1895.917	1.0	1861195	WORD_OFF	n/a	n/a	RAKE	11	0	17	[0, 0, 0]	n/a	0	0	0	n/a	n/a	0.0	0	0	0	FR3	0	R1170J
1896.917	1.6	1862195	WORD	n/a	wordpools/wordpool.txt	CONE	12	0	17	[0, 0, 0]	n/a	0	0	0	n/a	n/a	0.0	0	0	0	FR3	0	R1170J
1898.534	0.0	1863812	WORD_OFF	n/a	n/a	CONE	12	0	17	[0, 0, 0]	n/a	0	0	0	n/a	n/a	0.0	0	0	0	FR3	0	R1170J
1898.534	0.001	1863812	DISTRACT_START	n/a	n/a	n/a	-999	0	17	[0, 0, 0]	n/a	0	0	0	n/a	n/a	0.0	0	0	0	FR3	0	R1170J
1898.535	0.016	1863813	START	n/a	n/a	n/a	-999	0	17	[-999, -999, -999]	n/a	0	0	0	n/a	n/a	0.0	0	0	0	FR3	0	R1170J
1898.551	8.151	1863829	PROB	8.127	n/a	n/a	-999	0	17	[2, 3, 9]	14	0	0	0	n/a	n/a	0.0	0	0	0	FR3	0	R1170J
1906.702	4.0	1871980	PROB	3.969	n/a	n/a	-999	0	17	[3, 8, 2]	13	0	0	0	n/a	n/a	0.0	0	0	0	FR3	0	R1170J
1910.702	8.584	1875980	PROB	8.584	n/a	n/a	-999	0	17	[5, 7, 4]	16	0	0	0	n/a	n/a	0.0	0	0	0	FR3	0	R1170J
1919.286	0.017	1884564	STOP	n/a	n/a	n/a	-999	0	17	[-999, -999, -999]	n/a	0	0	0	n/a	n/a	0.0	0	0	0	FR3	0	R1170J
1919.303	0.6	1884581	DISTRACT_END	n/a	n/a	n/a	-999	0	17	[0, 0, 0]	n/a	0	0	0	n/a	n/a	0.0	0	0	0	FR3	0	R1170J
1919.903	0.5	1885181	RETRIEVAL_ORIENT	n/a	n/a	n/a	-999	0	17	[0, 0, 0]	n/a	0	0	0	n/a	n/a	0.0	0	0	0	FR3	0	R1170J
1920.421	0.919	1885699	REC_START	n/a	n/a	n/a	-999	0	17	[0, 0, 0]	n/a	0	0	0	n/a	n/a	0.0	0	0	0	FR3	0	R1170J
1921.34	1.393	1886618	REC_WORD	0.919	n/a	CORN	-999	0	17	[0, 0, 0]	n/a	0	0	0	n/a	n/a	0.0	0	0	0	FR3	0	R1170J
1922.733	6.307	1888011	REC_WORD	2.312	n/a	SNAKE	-999	0	17	[0, 0, 0]	n/a	0	0	0	n/a	n/a	0.0	0	0	0	FR3	0	R1170J
1929.04	21.392	1894318	REC_WORD	8.619	n/a	CHART	-999	0	17	[0, 0, 0]	n/a	0	0	0	n/a	n/a	0.0	0	0	0	FR3	0	R1170J
1950.432	5.393	1915710	REC_END	n/a	n/a	n/a	-999	0	17	[0, 0, 0]	n/a	0	0	0	n/a	n/a	0.0	0	0	0	FR3	0	R1170J
1955.825	0.5	1921103	TRIAL	n/a	n/a	n/a	-999	0	18	[0, 0, 0]	n/a	0	0	0	n/a	n/a	0.0	0	0	0	FR3	0	R1170J
1956.325	10.0	1921603	COUNTDOWN_START	n/a	n/a	n/a	-999	0	18	[0, 0, 0]	n/a	0	0	0	n/a	n/a	0.0	0	0	0	FR3	0	R1170J
1966.753	0.007	1932031	COUNTDOWN_END	n/a	n/a	n/a	-999	0	18	[0, 0, 0]	n/a	0	0	0	n/a	n/a	0.0	0	0	0	FR3	0	R1170J
1966.76	1.6	1932038	ORIENT	n/a	n/a	n/a	-999	0	18	[0, 0, 0]	n/a	0	0	0	n/a	n/a	0.0	0	0	0	FR3	0	R1170J
1968.377	2.15	1933655	ORIENT_OFF	n/a	n/a	n/a	-999	0	18	[0, 0, 0]	n/a	0	0	0	n/a	n/a	0.0	0	0	0	FR3	0	R1170J
1970.527	1.6	1935805	WORD	n/a	wordpools/wordpool.txt	MAIL	1	0	18	[0, 0, 0]	n/a	0	0	0	n/a	n/a	0.0	0	0	0	FR3	0	R1170J
1972.145	0.967	1937423	WORD_OFF	n/a	n/a	MAIL	1	0	18	[0, 0, 0]	n/a	0	0	0	n/a	n/a	0.0	0	0	0	FR3	0	R1170J
1973.112	1.6	1938390	WORD	n/a	wordpools/wordpool.txt	SUN	2	1	18	[0, 0, 0]	n/a	0	0	0	n/a	n/a	0.0	0	0	0	FR3	0	R1170J
1974.727	0.867	1940005	WORD_OFF	n/a	n/a	SUN	2	0	18	[0, 0, 0]	n/a	0	0	0	n/a	n/a	0.0	0	0	0	FR3	0	R1170J
1975.594	1.6	1940872	WORD	n/a	wordpools/wordpool.txt	NET	3	0	18	[0, 0, 0]	n/a	0	0	0	n/a	n/a	0.0	0	0	0	FR3	0	R1170J
1977.195	0.934	1942473	WORD_OFF	n/a	n/a	NET	3	0	18	[0, 0, 0]	n/a	0	0	0	n/a	n/a	0.0	0	0	0	FR3	0	R1170J
1978.129	1.6	1943407	WORD	n/a	wordpools/wordpool.txt	BANK	4	0	18	[0, 0, 0]	n/a	0	0	0	n/a	n/a	0.0	0	0	0	FR3	0	R1170J
1979.745	0.999	1945022	WORD_OFF	n/a	n/a	BANK	4	0	18	[0, 0, 0]	n/a	0	0	0	n/a	n/a	0.0	0	0	0	FR3	0	R1170J
1980.744	1.6	1946021	WORD	n/a	wordpools/wordpool.txt	DUCK	5	0	18	[0, 0, 0]	n/a	0	0	0	n/a	n/a	0.0	0	0	0	FR3	0	R1170J
1982.362	0.834	1947639	WORD_OFF	n/a	n/a	DUCK	5	0	18	[0, 0, 0]	n/a	0	0	0	n/a	n/a	0.0	0	0	0	FR3	0	R1170J
1983.196	1.6	1948473	WORD	n/a	wordpools/wordpool.txt	TRASH	6	0	18	[0, 0, 0]	n/a	0	0	0	n/a	n/a	0.0	0	0	0	FR3	0	R1170J
1984.812	0.767	1950089	WORD_OFF	n/a	n/a	TRASH	6	0	18	[0, 0, 0]	n/a	0	0	0	n/a	n/a	0.0	0	0	0	FR3	0	R1170J
1985.579	1.6	1950856	WORD	n/a	wordpools/wordpool.txt	SALT	7	0	18	[0, 0, 0]	n/a	0	0	0	n/a	n/a	0.0	0	0	0	FR3	0	R1170J
1987.197	0.967	1952474	WORD_OFF	n/a	n/a	SALT	7	0	18	[0, 0, 0]	n/a	0	0	0	n/a	n/a	0.0	0	0	0	FR3	0	R1170J
1988.164	1.6	1953441	WORD	n/a	wordpools/wordpool.txt	CLAY	8	0	18	[0, 0, 0]	n/a	0	0	0	n/a	n/a	0.0	0	0	0	FR3	0	R1170J
1989.779	0.767	1955056	WORD_OFF	n/a	n/a	CLAY	8	0	18	[0, 0, 0]	n/a	0	0	0	n/a	n/a	0.0	0	0	0	FR3	0	R1170J
1990.546	1.6	1955823	WORD	n/a	wordpools/wordpool.txt	EEL	9	1	18	[0, 0, 0]	n/a	0	0	0	n/a	n/a	0.0	0	0	0	FR3	0	R1170J
1992.164	0.799	1957441	WORD_OFF	n/a	n/a	EEL	9	0	18	[0, 0, 0]	n/a	0	0	0	n/a	n/a	0.0	0	0	0	FR3	0	R1170J
1992.963	1.6	1958240	WORD	n/a	wordpools/wordpool.txt	BALL	10	0	18	[0, 0, 0]	n/a	0	0	0	n/a	n/a	0.0	0	0	0	FR3	0	R1170J
1994.58	0.933	1959857	WORD_OFF	n/a	n/a	BALL	10	0	18	[0, 0, 0]	n/a	0	0	0	n/a	n/a	0.0	0	0	0	FR3	0	R1170J
1995.513	1.6	1960790	WORD	n/a	wordpools/wordpool.txt	JUICE	11	0	18	[0, 0, 0]	n/a	0	0	0	n/a	n/a	0.0	0	0	0	FR3	0	R1170J
1997.115	0.766	1962392	WORD_OFF	n/a	n/a	JUICE	11	0	18	[0, 0, 0]	n/a	0	0	0	n/a	n/a	0.0	0	0	0	FR3	0	R1170J
1997.881	1.6	1963158	WORD	n/a	wordpools/wordpool.txt	BOOK	12	0	18	[0, 0, 0]	n/a	0	0	0	n/a	n/a	0.0	0	0	0	FR3	0	R1170J
1999.497	0.0	1964774	WORD_OFF	n/a	n/a	BOOK	12	0	18	[0, 0, 0]	n/a	0	0	0	n/a	n/a	0.0	0	0	0	FR3	0	R1170J
1999.497	0.001	1964774	DISTRACT_START	n/a	n/a	n/a	-999	0	18	[0, 0, 0]	n/a	0	0	0	n/a	n/a	0.0	0	0	0	FR3	0	R1170J
1999.498	0.016	1964775	START	n/a	n/a	n/a	-999	0	18	[-999, -999, -999]	n/a	0	0	0	n/a	n/a	0.0	0	0	0	FR3	0	R1170J
1999.514	6.367	1964791	PROB	6.337	n/a	n/a	-999	0	18	[2, 6, 6]	14	0	0	0	n/a	n/a	0.0	0	0	0	FR3	0	R1170J
2005.881	3.817	1971158	PROB	3.793	n/a	n/a	-999	0	18	[7, 3, 7]	17	0	0	0	n/a	n/a	0.0	0	0	0	FR3	0	R1170J
2009.698	3.768	1974975	PROB	3.745	n/a	n/a	-999	0	18	[2, 1, 9]	12	0	0	0	n/a	n/a	0.0	0	0	0	FR3	0	R1170J
2013.466	4.084	1978743	PROB	4.057	n/a	n/a	-999	0	18	[3, 1, 1]	5	0	0	0	n/a	n/a	0.0	0	0	0	FR3	0	R1170J
2017.55	6.637	1982827	PROB	6.637	n/a	n/a	-999	0	18	[5, 1, 2]	8	0	0	0	n/a	n/a	0.0	0	0	0	FR3	0	R1170J
2024.187	0.014	1989464	STOP	n/a	n/a	n/a	-999	0	18	[-999, -999, -999]	n/a	0	0	0	n/a	n/a	0.0	0	0	0	FR3	0	R1170J
2024.201	0.716	1989478	DISTRACT_END	n/a	n/a	n/a	-999	0	18	[0, 0, 0]	n/a	0	0	0	n/a	n/a	0.0	0	0	0	FR3	0	R1170J
2024.917	0.5	1990194	RETRIEVAL_ORIENT	n/a	n/a	n/a	-999	0	18	[0, 0, 0]	n/a	0	0	0	n/a	n/a	0.0	0	0	0	FR3	0	R1170J
2025.435	0.521	1990712	REC_START	n/a	n/a	n/a	-999	0	18	[0, 0, 0]	n/a	0	0	0	n/a	n/a	0.0	0	0	0	FR3	0	R1170J
2025.956	1.13	1991233	REC_WORD	0.521	n/a	SUN	2	1	18	[0, 0, 0]	n/a	0	0	0	n/a	n/a	0.0	0	0	0	FR3	0	R1170J
2027.086	2.241	1992363	REC_WORD	1.651	n/a	EEL	9	1	18	[0, 0, 0]	n/a	0	0	0	n/a	n/a	0.0	0	0	0	FR3	0	R1170J
2029.327	26.119	1994604	REC_WORD	3.892	n/a	SNAIL	-999	0	18	[0, 0, 0]	n/a	0	0	0	n/a	n/a	0.0	0	0	0	FR3	0	R1170J
2055.446	5.392	2020723	REC_END	n/a	n/a	n/a	-999	0	18	[0, 0, 0]	n/a	0	0	0	n/a	n/a	0.0	0	0	0	FR3	0	R1170J
2060.838	0.5	2026115	TRIAL	n/a	n/a	n/a	-999	0	19	[0, 0, 0]	n/a	0	1	0	n/a	n/a	0.0	0	0	0	FR3	0	R1170J
2061.338	10.0	2026615	COUNTDOWN_START	n/a	n/a	n/a	-999	0	19	[0, 0, 0]	n/a	0	1	0	n/a	n/a	0.0	0	0	0	FR3	0	R1170J
2071.766	0.007	2037043	COUNTDOWN_END	n/a	n/a	n/a	-999	0	19	[0, 0, 0]	n/a	0	1	0	n/a	n/a	0.0	0	0	0	FR3	0	R1170J
2071.773	1.6	2037050	ORIENT	n/a	n/a	n/a	-999	0	19	[0, 0, 0]	n/a	0	1	0	n/a	n/a	0.0	0	0	0	FR3	0	R1170J
2073.39	2.067	2038667	ORIENT_OFF	n/a	n/a	n/a	-999	0	19	[0, 0, 0]	n/a	0	1	0	n/a	n/a	0.0	0	0	0	FR3	0	R1170J
2075.457	1.6	2040734	WORD	n/a	wordpools/wordpool.txt	HOLE	1	0	19	[0, 0, 0]	n/a	0	1	0	n/a	n/a	0.0	0	0	0	FR3	0	R1170J
2077.048	0.0	2042325	STIM_ON	n/a	n/a	HOLE	1	0	19	[0, 0, 0]	n/a	1	1	500	L7ST7	L7ST8	250.0	200	100	300	FR3	0	R1170J
2077.075	0.473	2042352	WORD_OFF	n/a	n/a	HOLE	1	0	19	[0, 0, 0]	n/a	1	1	500	L7ST7	L7ST8	250.0	200	100	300	FR3	0	R1170J
2077.548	0.309	2042825	STIM_OFF	n/a	n/a	n/a	1	0	19	[0, 0, 0]	n/a	0	1	500	L7ST7	L7ST8	250.0	200	100	300	FR3	0	R1170J
2077.857	1.6	2043134	WORD	n/a	wordpools/wordpool.txt	SKUNK	2	0	19	[0, 0, 0]	n/a	0	1	0	n/a	n/a	0.0	0	0	0	FR3	0	R1170J
2079.446	0.0	2044723	STIM_ON	n/a	n/a	SKUNK	2	0	19	[0, 0, 0]	n/a	1	1	500	L7ST7	L7ST8	250.0	200	100	300	FR3	0	R1170J
2079.474	0.472	2044751	WORD_OFF	n/a	n/a	SKUNK	2	0	19	[0, 0, 0]	n/a	1	1	500	L7ST7	L7ST8	250.0	200	100	300	FR3	0	R1170J
2079.946	0.478	2045223	STIM_OFF	n/a	n/a	n/a	2	0	19	[0, 0, 0]	n/a	0	1	500	L7ST7	L7ST8	250.0	200	100	300	FR3	0	R1170J
2080.424	1.6	2045701	WORD	n/a	wordpools/wordpool.txt	BUSH	3	0	19	[0, 0, 0]	n/a	0	1	0	n/a	n/a	0.0	0	0	0	FR3	0	R1170J
2082.041	0.833	2047318	WORD_OFF	n/a	n/a	BUSH	3	0	19	[0, 0, 0]	n/a	0	1	0	n/a	n/a	0.0	0	0	0	FR3	0	R1170J
2082.874	1.6	2048151	WORD	n/a	wordpools/wordpool.txt	BAG	4	0	19	[0, 0, 0]	n/a	0	1	0	n/a	n/a	0.0	0	0	0	FR3	0	R1170J
2084.492	0.983	2049769	WORD_OFF	n/a	n/a	BAG	4	0	19	[0, 0, 0]	n/a	0	1	0	n/a	n/a	0.0	0	0	0	FR3	0	R1170J
2085.475	1.6	2050752	WORD	n/a	wordpools/wordpool.txt	TOAD	5	0	19	[0, 0, 0]	n/a	0	1	0	n/a	n/a	0.0	0	0	0	FR3	0	R1170J
2087.055	0.0	2052332	STIM_ON	n/a	n/a	TOAD	5	0	19	[0, 0, 0]	n/a	1	1	500	L7ST7	L7ST8	250.0	200	100	300	FR3	0	R1170J
2087.093	0.462	2052370	WORD_OFF	n/a	n/a	TOAD	5	0	19	[0, 0, 0]	n/a	1	1	500	L7ST7	L7ST8	250.0	200	100	300	FR3	0	R1170J
2087.555	0.42	2052832	STIM_OFF	n/a	n/a	n/a	5	0	19	[0, 0, 0]	n/a	0	1	500	L7ST7	L7ST8	250.0	200	100	300	FR3	0	R1170J
2087.975	1.6	2053252	WORD	n/a	wordpools/wordpool.txt	STICK	6	0	19	[0, 0, 0]	n/a	0	1	0	n/a	n/a	0.0	0	0	0	FR3	0	R1170J
