onset	duration	sample	trial_type	response_time	stim_file	item_name	serialpos	recalled	list	test	answer	stimulation	stim_list	stim_duration	anode_label	cathode_label	amplitude	pulse_freq	n_pulses	pulse_width	experiment	session	subject
0.0	69.859	182	INSTRUCT_START	n/a	n/a	n/a	-999	0	-999	[0, 0, 0]	n/a	0	0	0	n/a	n/a	0.0	0	0	0	FR3	1	R1293P
69.859	2.235	70037	INSTRUCT_END	n/a	n/a	n/a	-999	0	-999	[0, 0, 0]	n/a	0	0	0	n/a	n/a	0.0	0	0	0	FR3	1	R1293P
72.094	7.011	72272	MIC TEST_START	n/a	n/a	n/a	-999	0	-999	[0, 0, 0]	n/a	0	0	0	n/a	n/a	0.0	0	0	0	FR3	1	R1293P
79.105	0.011	79283	MIC TEST_END	n/a	n/a	n/a	-999	0	-999	[0, 0, 0]	n/a	0	0	0	n/a	n/a	0.0	0	0	0	FR3	1	R1293P
79.116	0.0	79294	TRIAL_START	n/a	n/a	n/a	-999	0	-1	[0, 0, 0]	n/a	0	0	0	n/a	n/a	0.0	0	0	0	FR3	1	R1293P
79.116	0.001	79294	TRIAL	n/a	n/a	n/a	-999	0	-1	[0, 0, 0]	n/a	0	0	0	n/a	n/a	0.0	0	0	0	FR3	1	R1293P
79.117	52.454	79295	WAITING_START	n/a	n/a	n/a	-999	0	-1	[0, 0, 0]	n/a	0	0	0	n/a	n/a	0.0	0	0	0	FR3	1	R1293P
131.571	0.0	131746	WAITING_END	n/a	n/a	n/a	-999	0	-1	[0, 0, 0]	n/a	0	0	0	n/a	n/a	0.0	0	0	0	FR3	1	R1293P
131.571	10.0	131746	COUNTDOWN_START	n/a	n/a	n/a	-999	0	-1	[0, 0, 0]	n/a	0	0	0	n/a	n/a	0.0	0	0	0	FR3	1	R1293P
142.001	0.0	142175	COUNTDOWN_END	n/a	n/a	n/a	-999	0	-1	[0, 0, 0]	n/a	0	0	0	n/a	n/a	0.0	0	0	0	FR3	1	R1293P
142.001	1.073	142175	ORIENT_START	n/a	n/a	n/a	-999	0	-1	[0, 0, 0]	n/a	0	0	0	n/a	n/a	0.0	0	0	0	FR3	1	R1293P
143.074	0.001	143248	ORIENT_END	n/a	n/a	n/a	-999	0	-1	[0, 0, 0]	n/a	0	0	0	n/a	n/a	0.0	0	0	0	FR3	1	R1293P
143.075	0.985	143249	ENCODING_START	n/a	n/a	n/a	-999	0	-1	[0, 0, 0]	n/a	0	0	0	n/a	n/a	0.0	0	0	0	FR3	1	R1293P
144.06	1.6	144234	WORD	n/a	n/a	ATTIC	0	0	-1	[0, 0, 0]	n/a	0	0	0	n/a	n/a	0.0	0	0	0	FR3	1	R1293P
145.69	0.877	145864	WORD_OFF	n/a	n/a	ATTIC	0	0	-1	[0, 0, 0]	n/a	0	0	0	n/a	n/a	0.0	0	0	0	FR3	1	R1293P
146.567	1.6	146741	WORD	n/a	n/a	BEAM	1	0	-1	[0, 0, 0]	n/a	0	0	0	n/a	n/a	0.0	0	0	0	FR3	1	R1293P
148.174	0.83	148348	WORD_OFF	n/a	n/a	BEAM	1	0	-1	[0, 0, 0]	n/a	0	0	0	n/a	n/a	0.0	0	0	0	FR3	1	R1293P
149.004	1.6	149178	WORD	n/a	n/a	CAMEL	2	0	-1	[0, 0, 0]	n/a	0	0	0	n/a	n/a	0.0	0	0	0	FR3	1	R1293P
150.641	1.007	150815	WORD_OFF	n/a	n/a	CAMEL	2	0	-1	[0, 0, 0]	n/a	0	0	0	n/a	n/a	0.0	0	0	0	FR3	1	R1293P
151.648	1.6	151822	WORD	n/a	n/a	CHEST	3	0	-1	[0, 0, 0]	n/a	0	0	0	n/a	n/a	0.0	0	0	0	FR3	1	R1293P
153.259	0.993	153433	WORD_OFF	n/a	n/a	CHEST	3	0	-1	[0, 0, 0]	n/a	0	0	0	n/a	n/a	0.0	0	0	0	FR3	1	R1293P
154.252	1.6	154426	WORD	n/a	n/a	COTTON	4	0	-1	[0, 0, 0]	n/a	0	0	0	n/a	n/a	0.0	0	0	0	FR3	1	R1293P
155.875	0.778	156049	WORD_OFF	n/a	n/a	COTTON	4	0	-1	[0, 0, 0]	n/a	0	0	0	n/a	n/a	0.0	0	0	0	FR3	1	R1293P
156.653	1.6	156827	WORD	n/a	n/a	FLOOD	5	0	-1	[0, 0, 0]	n/a	0	0	0	n/a	n/a	0.0	0	0	0	FR3	1	R1293P
158.26	1.006	158433	WORD_OFF	n/a	n/a	FLOOD	5	0	-1	[0, 0, 0]	n/a	0	0	0	n/a	n/a	0.0	0	0	0	FR3	1	R1293P
159.266	1.6	159439	WORD	n/a	n/a	IRON	6	0	-1	[0, 0, 0]	n/a	0	0	0	n/a	n/a	0.0	0	0	0	FR3	1	R1293P
160.893	1.138	161066	WORD_OFF	n/a	n/a	IRON	6	0	-1	[0, 0, 0]	n/a	0	0	0	n/a	n/a	0.0	0	0	0	FR3	1	R1293P
162.031	1.6	162204	WORD	n/a	n/a	RHINO	7	0	-1	[0, 0, 0]	n/a	0	0	0	n/a	n/a	0.0	0	0	0	FR3	1	R1293P
163.66	0.935	163833	WORD_OFF	n/a	n/a	RHINO	7	0	-1	[0, 0, 0]	n/a	0	0	0	n/a	n/a	0.0	0	0	0	FR3	1	R1293P
164.595	1.6	164768	WORD	n/a	n/a	RING	8	0	-1	[0, 0, 0]	n/a	0	0	0	n/a	n/a	0.0	0	0	0	FR3	1	R1293P
166.228	0.784	166401	WORD_OFF	n/a	n/a	RING	8	0	-1	[0, 0, 0]	n/a	0	0	0	n/a	n/a	0.0	0	0	0	FR3	1	R1293P
167.012	1.6	167185	WORD	n/a	n/a	TONGUE	9	0	-1	[0, 0, 0]	n/a	0	0	0	n/a	n/a	0.0	0	0	0	FR3	1	R1293P
168.644	0.78	168817	WORD_OFF	n/a	n/a	TONGUE	9	0	-1	[0, 0, 0]	n/a	0	0	0	n/a	n/a	0.0	0	0	0	FR3	1	R1293P
169.424	1.6	169597	WORD	n/a	n/a	WAGON	10	0	-1	[0, 0, 0]	n/a	0	0	0	n/a	n/a	0.0	0	0	0	FR3	1	R1293P
171.062	0.823	171235	WORD_OFF	n/a	n/a	WAGON	10	0	-1	[0, 0, 0]	n/a	0	0	0	n/a	n/a	0.0	0	0	0	FR3	1	R1293P
171.885	1.6	172058	WORD	n/a	n/a	WATCH	11	0	-1	[0, 0, 0]	n/a	0	0	0	n/a	n/a	0.0	0	0	0	FR3	1	R1293P
173.513	0.001	173686	WORD_OFF	n/a	n/a	WATCH	11	0	-1	[0, 0, 0]	n/a	0	0	0	n/a	n/a	0.0	0	0	0	FR3	1	R1293P
173.514	0.0	173687	ENCODING_END	n/a	n/a	n/a	-999	0	-1	[0, 0, 0]	n/a	0	0	0	n/a	n/a	0.0	0	0	0	FR3	1	R1293P
173.514	0.001	173687	DISTRACT_START	n/a	n/a	n/a	-999	0	-1	[0, 0, 0]	n/a	0	0	0	n/a	n/a	0.0	0	0	0	FR3	1	R1293P
173.515	0.014	173688	START	n/a	n/a	n/a	-999	0	-1	[-999, -999, -999]	n/a	0	0	0	n/a	n/a	0.0	0	0	0	FR3	1	R1293P
173.529	2.967	173702	PROB	2.941	n/a	n/a	-999	0	-1	[7, 2, 1]	10	0	0	0	n/a	n/a	0.0	0	0	0	FR3	1	R1293P
176.496	2.517	176668	PROB	2.487	n/a	n/a	-999	0	-1	[4, 2, 7]	13	0	0	0	n/a	n/a	0.0	0	0	0	FR3	1	R1293P
179.013	2.867	179185	PROB	2.84	n/a	n/a	-999	0	-1	[4, 3, 8]	15	0	0	0	n/a	n/a	0.0	0	0	0	FR3	1	R1293P
181.88	2.635	182052	PROB	2.606	n/a	n/a	-999	0	-1	[1, 9, 8]	18	0	0	0	n/a	n/a	0.0	0	0	0	FR3	1	R1293P
184.515	2.867	184687	PROB	2.843	n/a	n/a	-999	0	-1	[5, 7, 6]	18	0	0	0	n/a	n/a	0.0	0	0	0	FR3	1	R1293P
187.382	3.617	187554	PROB	3.592	n/a	n/a	-999	0	-1	[7, 8, 9]	24	0	0	0	n/a	n/a	0.0	0	0	0	FR3	1	R1293P
190.999	2.944	191171	PROB	2.944	n/a	n/a	-999	0	-1	[6, 2, 6]	14	0	0	0	n/a	n/a	0.0	0	0	0	FR3	1	R1293P
193.943	0.007	194115	STOP	n/a	n/a	n/a	-999	0	-1	[-999, -999, -999]	n/a	0	0	0	n/a	n/a	0.0	0	0	0	FR3	1	R1293P
193.95	0.69	194122	DISTRACT_END	n/a	n/a	n/a	-999	0	-1	[0, 0, 0]	n/a	0	0	0	n/a	n/a	0.0	0	0	0	FR3	1	R1293P
194.64	1.6	194812	RETRIEVAL_ORIENT_START	n/a	n/a	n/a	-999	0	-1	[0, 0, 0]	n/a	0	0	0	n/a	n/a	0.0	0	0	0	FR3	1	R1293P
196.35	0.001	196521	RETRIEVAL_ORIENT_END	n/a	n/a	n/a	-999	0	-1	[0, 0, 0]	n/a	0	0	0	n/a	n/a	0.0	0	0	0	FR3	1	R1293P
196.351	1.714	196522	REC_START	n/a	n/a	n/a	-999	0	-1	[0, 0, 0]	n/a	0	0	0	n/a	n/a	0.0	0	0	0	FR3	1	R1293P
198.065	0.54	198236	REC_WORD	1.714	n/a	ATTIC	1	0	-1	[0, 0, 0]	n/a	0	0	0	n/a	n/a	0.0	0	0	0	FR3	1	R1293P
198.605	0.5	198776	REC_WORD	2.254	n/a	BEAM	2	0	-1	[0, 0, 0]	n/a	0	0	0	n/a	n/a	0.0	0	0	0	FR3	1	R1293P
199.105	1.735	199276	REC_WORD	2.754	n/a	CALM	-999	0	-1	[0, 0, 0]	n/a	0	0	0	n/a	n/a	0.0	0	0	0	FR3	1	R1293P
200.84	0.755	201011	REC_WORD	4.489	n/a	COTTON	5	0	-1	[0, 0, 0]	n/a	0	0	0	n/a	n/a	0.0	0	0	0	FR3	1	R1293P
201.595	2.6	201766	REC_WORD	5.244	n/a	FLOOD	6	0	-1	[0, 0, 0]	n/a	0	0	0	n/a	n/a	0.0	0	0	0	FR3	1	R1293P
204.195	0.82	204366	REC_WORD	7.844	n/a	IRON	7	0	-1	[0, 0, 0]	n/a	0	0	0	n/a	n/a	0.0	0	0	0	FR3	1	R1293P
205.015	4.825	205186	REC_WORD	8.664	n/a	RHINO	8	0	-1	[0, 0, 0]	n/a	0	0	0	n/a	n/a	0.0	0	0	0	FR3	1	R1293P
209.84	8.885	210011	REC_WORD	13.489	n/a	CHEST	4	0	-1	[0, 0, 0]	n/a	0	0	0	n/a	n/a	0.0	0	0	0	FR3	1	R1293P
218.725	7.637	218895	REC_WORD	22.374	n/a	TONGUE	10	0	-1	[0, 0, 0]	n/a	0	0	0	n/a	n/a	0.0	0	0	0	FR3	1	R1293P
226.362	0.001	226532	REC_END	n/a	n/a	n/a	-999	0	-1	[0, 0, 0]	n/a	0	0	0	n/a	n/a	0.0	0	0	0	FR3	1	R1293P
226.363	3.21	226533	PRACTICE_POST_INSTRUCT_START	n/a	n/a	n/a	-999	0	-1	[0, 0, 0]	n/a	0	0	0	n/a	n/a	0.0	0	0	0	FR3	1	R1293P
229.573	0.001	229743	PRACTICE_POST_INSTRUCT_END	n/a	n/a	n/a	-999	0	-1	[0, 0, 0]	n/a	0	0	0	n/a	n/a	0.0	0	0	0	FR3	1	R1293P
229.574	0.018	229744	TRIAL_END	n/a	n/a	n/a	-999	0	-1	[0, 0, 0]	n/a	0	0	0	n/a	n/a	0.0	0	0	0	FR3	1	R1293P
229.592	0.0	229762	TRIAL_START	n/a	n/a	n/a	-999	0	1	[0, 0, 0]	n/a	0	0	0	n/a	n/a	0.0	0	0	0	FR3	1	R1293P
229.592	0.001	229762	TRIAL	n/a	n/a	n/a	-999	0	1	[0, 0, 0]	n/a	0	0	0	n/a	n/a	0.0	0	0	0	FR3	1	R1293P
229.593	5.297	229763	WAITING_START	n/a	n/a	n/a	-999	0	1	[0, 0, 0]	n/a	0	0	0	n/a	n/a	0.0	0	0	0	FR3	1	R1293P
234.89	0.001	235059	WAITING_END	n/a	n/a	n/a	-999	0	1	[0, 0, 0]	n/a	0	0	0	n/a	n/a	0.0	0	0	0	FR3	1	R1293P
234.891	10.0	235060	COUNTDOWN_START	n/a	n/a	n/a	-999	0	1	[0, 0, 0]	n/a	0	0	0	n/a	n/a	0.0	0	0	0	FR3	1	R1293P
245.321	0.001	245490	COUNTDOWN_END	n/a	n/a	n/a	-999	0	1	[0, 0, 0]	n/a	0	0	0	n/a	n/a	0.0	0	0	0	FR3	1	R1293P
245.322	1.238	245491	ORIENT_START	n/a	n/a	n/a	-999	0	1	[0, 0, 0]	n/a	0	0	0	n/a	n/a	0.0	0	0	0	FR3	1	R1293P
246.56	0.0	246729	ENCODING_START	n/a	n/a	n/a	-999	0	1	[0, 0, 0]	n/a	0	0	0	n/a	n/a	0.0	0	0	0	FR3	1	R1293P
246.56	0.985	246729	ORIENT_END	n/a	n/a	n/a	-999	0	1	[0, 0, 0]	n/a	0	0	0	n/a	n/a	0.0	0	0	0	FR3	1	R1293P
247.545	1.6	247714	WORD	n/a	wordpools/wordpool.txt	PRINCE	0	1	1	[0, 0, 0]	n/a	0	0	0	n/a	n/a	0.0	0	0	0	FR3	1	R1293P
249.177	0.883	249346	WORD_OFF	n/a	n/a	PRINCE	0	0	1	[0, 0, 0]	n/a	0	0	0	n/a	n/a	0.0	0	0	0	FR3	1	R1293P
250.06	1.6	250229	WORD	n/a	wordpools/wordpool.txt	FORT	1	1	1	[0, 0, 0]	n/a	0	0	0	n/a	n/a	0.0	0	0	0	FR3	1	R1293P
251.693	1.123	251861	WORD_OFF	n/a	n/a	FORT	1	0	1	[0, 0, 0]	n/a	0	0	0	n/a	n/a	0.0	0	0	0	FR3	1	R1293P
252.816	1.6	252984	WORD	n/a	wordpools/wordpool.txt	PHONE	2	1	1	[0, 0, 0]	n/a	0	0	0	n/a	n/a	0.0	0	0	0	FR3	1	R1293P
254.428	0.822	254596	WORD_OFF	n/a	n/a	PHONE	2	0	1	[0, 0, 0]	n/a	0	0	0	n/a	n/a	0.0	0	0	0	FR3	1	R1293P
255.25	1.6	255418	WORD	n/a	wordpools/wordpool.txt	SHEET	3	1	1	[0, 0, 0]	n/a	0	0	0	n/a	n/a	0.0	0	0	0	FR3	1	R1293P
256.877	1.149	257045	WORD_OFF	n/a	n/a	SHEET	3	0	1	[0, 0, 0]	n/a	0	0	0	n/a	n/a	0.0	0	0	0	FR3	1	R1293P
258.026	1.6	258194	WORD	n/a	wordpools/wordpool.txt	MOUTH	4	0	1	[0, 0, 0]	n/a	0	0	0	n/a	n/a	0.0	0	0	0	FR3	1	R1293P
259.661	0.995	259829	WORD_OFF	n/a	n/a	MOUTH	4	0	1	[0, 0, 0]	n/a	0	0	0	n/a	n/a	0.0	0	0	0	FR3	1	R1293P
260.656	1.6	260824	WORD	n/a	wordpools/wordpool.txt	BADGE	5	1	1	[0, 0, 0]	n/a	0	0	0	n/a	n/a	0.0	0	0	0	FR3	1	R1293P
262.279	0.985	262447	WORD_OFF	n/a	n/a	BADGE	5	0	1	[0, 0, 0]	n/a	0	0	0	n/a	n/a	0.0	0	0	0	FR3	1	R1293P
263.264	1.6	263432	WORD	n/a	wordpools/wordpool.txt	PANTS	6	0	1	[0, 0, 0]	n/a	0	0	0	n/a	n/a	0.0	0	0	0	FR3	1	R1293P
264.896	0.942	265064	WORD_OFF	n/a	n/a	PANTS	6	0	1	[0, 0, 0]	n/a	0	0	0	n/a	n/a	0.0	0	0	0	FR3	1	R1293P
265.838	1.6	266006	WORD	n/a	wordpools/wordpool.txt	GOAT	7	1	1	[0, 0, 0]	n/a	0	0	0	n/a	n/a	0.0	0	0	0	FR3	1	R1293P
267.464	0.937	267632	WORD_OFF	n/a	n/a	GOAT	7	0	1	[0, 0, 0]	n/a	0	0	0	n/a	n/a	0.0	0	0	0	FR3	1	R1293P
268.401	1.6	268569	WORD	n/a	wordpools/wordpool.txt	THUMB	8	1	1	[0, 0, 0]	n/a	0	0	0	n/a	n/a	0.0	0	0	0	FR3	1	R1293P
270.031	0.846	270198	WORD_OFF	n/a	n/a	THUMB	8	0	1	[0, 0, 0]	n/a	0	0	0	n/a	n/a	0.0	0	0	0	FR3	1	R1293P
270.877	1.6	271044	WORD	n/a	wordpools/wordpool.txt	MAZE	9	0	1	[0, 0, 0]	n/a	0	0	0	n/a	n/a	0.0	0	0	0	FR3	1	R1293P
272.515	0.918	272682	WORD_OFF	n/a	n/a	MAZE	9	0	1	[0, 0, 0]	n/a	0	0	0	n/a	n/a	0.0	0	0	0	FR3	1	R1293P
273.433	1.6	273600	WORD	n/a	wordpools/wordpool.txt	LAMP	10	0	1	[0, 0, 0]	n/a	0	0	0	n/a	n/a	0.0	0	0	0	FR3	1	R1293P
275.065	1.088	275232	WORD_OFF	n/a	n/a	LAMP	10	0	1	[0, 0, 0]	n/a	0	0	0	n/a	n/a	0.0	0	0	0	FR3	1	R1293P
276.153	1.6	276320	WORD	n/a	wordpools/wordpool.txt	SPRING	11	0	1	[0, 0, 0]	n/a	0	0	0	n/a	n/a	0.0	0	0	0	FR3	1	R1293P
277.781	0.001	277948	WORD_OFF	n/a	n/a	SPRING	11	0	1	[0, 0, 0]	n/a	0	0	0	n/a	n/a	0.0	0	0	0	FR3	1	R1293P
277.782	0.001	277949	ENCODING_END	n/a	n/a	n/a	-999	0	1	[0, 0, 0]	n/a	0	0	0	n/a	n/a	0.0	0	0	0	FR3	1	R1293P
277.783	0.0	277950	DISTRACT_START	n/a	n/a	n/a	-999	0	1	[0, 0, 0]	n/a	0	0	0	n/a	n/a	0.0	0	0	0	FR3	1	R1293P
277.783	0.015	277950	START	n/a	n/a	n/a	-999	0	1	[-999, -999, -999]	n/a	0	0	0	n/a	n/a	0.0	0	0	0	FR3	1	R1293P
277.798	2.568	277965	PROB	2.54	n/a	n/a	-999	0	1	[2, 2, 7]	11	0	0	0	n/a	n/a	0.0	0	0	0	FR3	1	R1293P
280.366	2.084	280533	PROB	2.06	n/a	n/a	-999	0	1	[6, 6, 5]	17	0	0	0	n/a	n/a	0.0	0	0	0	FR3	1	R1293P
282.45	2.199	282617	PROB	2.167	n/a	n/a	-999	0	1	[8, 9, 1]	18	0	0	0	n/a	n/a	0.0	0	0	0	FR3	1	R1293P
284.649	2.267	284816	PROB	2.239	n/a	n/a	-999	0	1	[5, 9, 2]	16	0	0	0	n/a	n/a	0.0	0	0	0	FR3	1	R1293P
286.916	1.884	287083	PROB	1.852	n/a	n/a	-999	0	1	[2, 6, 3]	11	0	0	0	n/a	n/a	0.0	0	0	0	FR3	1	R1293P
288.8	2.084	288966	PROB	2.048	n/a	n/a	-999	0	1	[7, 4, 4]	15	0	0	0	n/a	n/a	0.0	0	0	0	FR3	1	R1293P
290.884	2.218	291050	PROB	2.181	n/a	n/a	-999	0	1	[8, 4, 9]	22	0	0	0	n/a	n/a	0.0	0	0	0	FR3	1	R1293P
293.102	3.566	293268	PROB	3.53	n/a	n/a	-999	0	1	[4, 7, 7]	18	0	0	0	n/a	n/a	0.0	0	0	0	FR3	1	R1293P
296.668	1.821	296834	PROB	1.821	n/a	n/a	-999	0	1	[3, 3, 5]	11	0	0	0	n/a	n/a	0.0	0	0	0	FR3	1	R1293P
298.489	0.014	298655	STOP	n/a	n/a	n/a	-999	0	1	[-999, -999, -999]	n/a	0	0	0	n/a	n/a	0.0	0	0	0	FR3	1	R1293P
298.503	0.663	298669	DISTRACT_END	n/a	n/a	n/a	-999	0	1	[0, 0, 0]	n/a	0	0	0	n/a	n/a	0.0	0	0	0	FR3	1	R1293P
299.166	1.6	299332	RETRIEVAL_ORIENT_START	n/a	n/a	n/a	-999	0	1	[0, 0, 0]	n/a	0	0	0	n/a	n/a	0.0	0	0	0	FR3	1	R1293P
300.702	0.001	300868	RETRIEVAL_ORIENT_END	n/a	n/a	n/a	-999	0	1	[0, 0, 0]	n/a	0	0	0	n/a	n/a	0.0	0	0	0	FR3	1	R1293P
300.703	1.935	300869	REC_START	n/a	n/a	n/a	-999	0	1	[0, 0, 0]	n/a	0	0	0	n/a	n/a	0.0	0	0	0	FR3	1	R1293P
302.638	0.815	302804	REC_WORD	1.935	n/a	FORT	2	1	1	[0, 0, 0]	n/a	0	0	0	n/a	n/a	0.0	0	0	0	FR3	1	R1293P
303.453	1.324	303619	REC_WORD_VV	2.75	n/a	<>	-999	0	1	[0, 0, 0]	n/a	0	0	0	n/a	n/a	0.0	0	0	0	FR3	1	R1293P
304.777	0.73	304943	REC_WORD	4.074	n/a	FORT	2	1	1	[0, 0, 0]	n/a	0	0	0	n/a	n/a	0.0	0	0	0	FR3	1	R1293P
305.507	2.236	305673	REC_WORD	4.804	n/a	PRINCE	1	1	1	[0, 0, 0]	n/a	0	0	0	n/a	n/a	0.0	0	0	0	FR3	1	R1293P
307.743	1.275	307908	REC_WORD	7.04	n/a	GOAT	8	1	1	[0, 0, 0]	n/a	0	0	0	n/a	n/a	0.0	0	0	0	FR3	1	R1293P
309.018	1.499	309183	REC_WORD	8.315	n/a	SHEET	4	1	1	[0, 0, 0]	n/a	0	0	0	n/a	n/a	0.0	0	0	0	FR3	1	R1293P
310.517	1.715	310682	REC_WORD	9.814	n/a	PHONE	3	1	1	[0, 0, 0]	n/a	0	0	0	n/a	n/a	0.0	0	0	0	FR3	1	R1293P
312.232	6.645	312397	REC_WORD	11.529	n/a	BADGE	6	1	1	[0, 0, 0]	n/a	0	0	0	n/a	n/a	0.0	0	0	0	FR3	1	R1293P
318.877	4.875	319042	REC_WORD	18.174	n/a	THUMB	9	1	1	[0, 0, 0]	n/a	0	0	0	n/a	n/a	0.0	0	0	0	FR3	1	R1293P
323.752	6.52	323917	REC_WORD	23.049	n/a	FINGER	-999	0	1	[0, 0, 0]	n/a	0	0	0	n/a	n/a	0.0	0	0	0	FR3	1	R1293P
330.272	0.442	330436	REC_WORD	29.569	n/a	PRINCE	1	1	1	[0, 0, 0]	n/a	0	0	0	n/a	n/a	0.0	0	0	0	FR3	1	R1293P
330.714	0.001	330878	REC_END	n/a	n/a	n/a	-999	0	1	[0, 0, 0]	n/a	0	0	0	n/a	n/a	0.0	0	0	0	FR3	1	R1293P
330.715	0.014	330879	TRIAL_END	n/a	n/a	n/a	-999	0	1	[0, 0, 0]	n/a	0	0	0	n/a	n/a	0.0	0	0	0	FR3	1	R1293P
330.729	0.0	330893	TRIAL_START	n/a	n/a	n/a	-999	0	2	[0, 0, 0]	n/a	0	0	0	n/a	n/a	0.0	0	0	0	FR3	1	R1293P
330.729	0.001	330893	TRIAL	n/a	n/a	n/a	-999	0	2	[0, 0, 0]	n/a	0	0	0	n/a	n/a	0.0	0	0	0	FR3	1	R1293P
330.73	1.895	330894	WAITING_START	n/a	n/a	n/a	-999	0	2	[0, 0, 0]	n/a	0	0	0	n/a	n/a	0.0	0	0	0	FR3	1	R1293P
332.625	0.001	332789	WAITING_END	n/a	n/a	n/a	-999	0	2	[0, 0, 0]	n/a	0	0	0	n/a	n/a	0.0	0	0	0	FR3	1	R1293P
332.626	10.0	332790	COUNTDOWN_START	n/a	n/a	n/a	-999	0	2	[0, 0, 0]	n/a	0	0	0	n/a	n/a	0.0	0	0	0	FR3	1	R1293P
343.055	0.001	343219	COUNTDOWN_END	n/a	n/a	n/a	-999	0	2	[0, 0, 0]	n/a	0	0	0	n/a	n/a	0.0	0	0	0	FR3	1	R1293P
343.056	1.055	343220	ORIENT_START	n/a	n/a	n/a	-999	0	2	[0, 0, 0]	n/a	0	0	0	n/a	n/a	0.0	0	0	0	FR3	1	R1293P
344.111	0.001	344275	ORIENT_END	n/a	n/a	n/a	-999	0	2	[0, 0, 0]	n/a	0	0	0	n/a	n/a	0.0	0	0	0	FR3	1	R1293P
344.112	1.144	344276	ENCODING_START	n/a	n/a	n/a	-999	0	2	[0, 0, 0]	n/a	0	0	0	n/a	n/a	0.0	0	0	0	FR3	1	R1293P
345.256	1.6	345419	WORD	n/a	wordpools/wordpool.txt	MOTH	0	1	2	[0, 0, 0]	n/a	0	0	0	n/a	n/a	0.0	0	0	0	FR3	1	R1293P
346.878	0.935	347041	WORD_OFF	n/a	n/a	MOTH	0	0	2	[0, 0, 0]	n/a	0	0	0	n/a	n/a	0.0	0	0	0	FR3	1	R1293P
347.813	1.6	347976	WORD	n/a	wordpools/wordpool.txt	TRAY	1	0	2	[0, 0, 0]	n/a	0	0	0	n/a	n/a	0.0	0	0	0	FR3	1	R1293P
349.446	0.762	349609	WORD_OFF	n/a	n/a	TRAY	1	0	2	[0, 0, 0]	n/a	0	0	0	n/a	n/a	0.0	0	0	0	FR3	1	R1293P
350.208	1.6	350371	WORD	n/a	wordpools/wordpool.txt	PALM	2	0	2	[0, 0, 0]	n/a	0	0	0	n/a	n/a	0.0	0	0	0	FR3	1	R1293P
351.829	0.928	351992	WORD_OFF	n/a	n/a	PALM	2	0	2	[0, 0, 0]	n/a	0	0	0	n/a	n/a	0.0	0	0	0	FR3	1	R1293P
352.757	1.6	352920	WORD	n/a	wordpools/wordpool.txt	DOG	3	0	2	[0, 0, 0]	n/a	0	0	0	n/a	n/a	0.0	0	0	0	FR3	1	R1293P
354.38	1.14	354543	WORD_OFF	n/a	n/a	DOG	3	0	2	[0, 0, 0]	n/a	0	0	0	n/a	n/a	0.0	0	0	0	FR3	1	R1293P
355.52	1.6	355683	WORD	n/a	wordpools/wordpool.txt	DIME	4	0	2	[0, 0, 0]	n/a	0	0	0	n/a	n/a	0.0	0	0	0	FR3	1	R1293P
357.147	1.076	357310	WORD_OFF	n/a	n/a	DIME	4	0	2	[0, 0, 0]	n/a	0	0	0	n/a	n/a	0.0	0	0	0	FR3	1	R1293P
358.223	1.6	358386	WORD	n/a	wordpools/wordpool.txt	SEED	5	0	2	[0, 0, 0]	n/a	0	0	0	n/a	n/a	0.0	0	0	0	FR3	1	R1293P
359.847	0.933	360010	WORD_OFF	n/a	n/a	SEED	5	0	2	[0, 0, 0]	n/a	0	0	0	n/a	n/a	0.0	0	0	0	FR3	1	R1293P
360.78	1.6	360943	WORD	n/a	wordpools/wordpool.txt	SWAMP	6	0	2	[0, 0, 0]	n/a	0	0	0	n/a	n/a	0.0	0	0	0	FR3	1	R1293P
362.415	1.019	362578	WORD_OFF	n/a	n/a	SWAMP	6	0	2	[0, 0, 0]	n/a	0	0	0	n/a	n/a	0.0	0	0	0	FR3	1	R1293P
363.434	1.6	363596	WORD	n/a	wordpools/wordpool.txt	CUBE	7	1	2	[0, 0, 0]	n/a	0	0	0	n/a	n/a	0.0	0	0	0	FR3	1	R1293P
365.065	0.885	365227	WORD_OFF	n/a	n/a	CUBE	7	0	2	[0, 0, 0]	n/a	0	0	0	n/a	n/a	0.0	0	0	0	FR3	1	R1293P
365.95	1.6	366112	WORD	n/a	wordpools/wordpool.txt	YARD	8	0	2	[0, 0, 0]	n/a	0	0	0	n/a	n/a	0.0	0	0	0	FR3	1	R1293P
367.581	0.775	367743	WORD_OFF	n/a	n/a	YARD	8	0	2	[0, 0, 0]	n/a	0	0	0	n/a	n/a	0.0	0	0	0	FR3	1	R1293P
368.356	1.6	368518	WORD	n/a	wordpools/wordpool.txt	MOUSE	9	0	2	[0, 0, 0]	n/a	0	0	0	n/a	n/a	0.0	0	0	0	FR3	1	R1293P
369.983	0.825	370145	WORD_OFF	n/a	n/a	MOUSE	9	0	2	[0, 0, 0]	n/a	0	0	0	n/a	n/a	0.0	0	0	0	FR3	1	R1293P
370.808	1.6	370970	WORD	n/a	wordpools/wordpool.txt	STAIR	10	1	2	[0, 0, 0]	n/a	0	0	0	n/a	n/a	0.0	0	0	0	FR3	1	R1293P
372.417	0.857	372579	WORD_OFF	n/a	n/a	STAIR	10	0	2	[0, 0, 0]	n/a	0	0	0	n/a	n/a	0.0	0	0	0	FR3	1	R1293P
373.274	1.6	373436	WORD	n/a	wordpools/wordpool.txt	CASH	11	0	2	[0, 0, 0]	n/a	0	0	0	n/a	n/a	0.0	0	0	0	FR3	1	R1293P
374.9	0.0	375062	WORD_OFF	n/a	n/a	CASH	11	0	2	[0, 0, 0]	n/a	0	0	0	n/a	n/a	0.0	0	0	0	FR3	1	R1293P
374.9	0.001	375062	ENCODING_END	n/a	n/a	n/a	-999	0	2	[0, 0, 0]	n/a	0	0	0	n/a	n/a	0.0	0	0	0	FR3	1	R1293P
374.901	0.0	375063	DISTRACT_START	n/a	n/a	n/a	-999	0	2	[0, 0, 0]	n/a	0	0	0	n/a	n/a	0.0	0	0	0	FR3	1	R1293P
374.901	0.015	375063	START	n/a	n/a	n/a	-999	0	2	[-999, -999, -999]	n/a	0	0	0	n/a	n/a	0.0	0	0	0	FR3	1	R1293P
374.916	2.452	375078	PROB	2.413	n/a	n/a	-999	0	2	[5, 1, 5]	11	0	0	0	n/a	n/a	0.0	0	0	0	FR3	1	R1293P
377.368	2.733	377530	PROB	2.705	n/a	n/a	-999	0	2	[8, 6, 9]	23	0	0	0	n/a	n/a	0.0	0	0	0	FR3	1	R1293P
380.101	2.267	380263	PROB	2.228	n/a	n/a	-999	0	2	[2, 1, 3]	6	0	0	0	n/a	n/a	0.0	0	0	0	FR3	1	R1293P
382.368	2.884	382529	PROB	2.85	n/a	n/a	-999	0	2	[2, 9, 7]	18	0	0	0	n/a	n/a	0.0	0	0	0	FR3	1	R1293P
385.252	2.767	385413	PROB	2.742	n/a	n/a	-999	0	2	[9, 5, 6]	20	0	0	0	n/a	n/a	0.0	0	0	0	FR3	1	R1293P
388.019	1.833	388180	PROB	1.798	n/a	n/a	-999	0	2	[4, 4, 4]	12	0	0	0	n/a	n/a	0.0	0	0	0	FR3	1	R1293P
389.852	2.734	390013	PROB	2.702	n/a	n/a	-999	0	2	[8, 6, 1]	15	0	0	0	n/a	n/a	0.0	0	0	0	FR3	1	R1293P
392.586	2.792	392747	PROB	2.792	n/a	n/a	-999	0	2	[4, 4, 8]	16	0	0	0	n/a	n/a	0.0	0	0	0	FR3	1	R1293P
395.378	0.01	395539	STOP	n/a	n/a	n/a	-999	0	2	[-999, -999, -999]	n/a	0	0	0	n/a	n/a	0.0	0	0	0	FR3	1	R1293P
395.388	0.57	395549	DISTRACT_END	n/a	n/a	n/a	-999	0	2	[0, 0, 0]	n/a	0	0	0	n/a	n/a	0.0	0	0	0	FR3	1	R1293P
395.958	1.6	396119	RETRIEVAL_ORIENT_START	n/a	n/a	n/a	-999	0	2	[0, 0, 0]	n/a	0	0	0	n/a	n/a	0.0	0	0	0	FR3	1	R1293P
397.604	0.0	397765	RETRIEVAL_ORIENT_END	n/a	n/a	n/a	-999	0	2	[0, 0, 0]	n/a	0	0	0	n/a	n/a	0.0	0	0	0	FR3	1	R1293P
397.604	2.555	397765	REC_START	n/a	n/a	n/a	-999	0	2	[0, 0, 0]	n/a	0	0	0	n/a	n/a	0.0	0	0	0	FR3	1	R1293P
400.159	0.76	400320	REC_WORD	2.555	n/a	MOUTH	-999	0	2	[0, 0, 0]	n/a	0	0	0	n/a	n/a	0.0	0	0	0	FR3	1	R1293P
400.919	0.48	401079	REC_WORD	3.315	n/a	STAIR	11	1	2	[0, 0, 0]	n/a	0	0	0	n/a	n/a	0.0	0	0	0	FR3	1	R1293P
401.399	0.504	401559	REC_WORD	3.795	n/a	MOTH	1	1	2	[0, 0, 0]	n/a	0	0	0	n/a	n/a	0.0	0	0	0	FR3	1	R1293P
401.903	0.776	402063	REC_WORD	4.299	n/a	CALM	-999	0	2	[0, 0, 0]	n/a	0	0	0	n/a	n/a	0.0	0	0	0	FR3	1	R1293P
402.679	3.83	402839	REC_WORD	5.075	n/a	CUBE	8	1	2	[0, 0, 0]	n/a	0	0	0	n/a	n/a	0.0	0	0	0	FR3	1	R1293P
406.509	21.107	406669	REC_WORD	8.905	n/a	PRESSURE	-999	0	2	[0, 0, 0]	n/a	0	0	0	n/a	n/a	0.0	0	0	0	FR3	1	R1293P
427.616	0.001	427775	REC_END	n/a	n/a	n/a	-999	0	2	[0, 0, 0]	n/a	0	0	0	n/a	n/a	0.0	0	0	0	FR3	1	R1293P
427.617	0.014	427776	TRIAL_END	n/a	n/a	n/a	-999	0	2	[0, 0, 0]	n/a	0	0	0	n/a	n/a	0.0	0	0	0	FR3	1	R1293P
427.631	0.0	427790	TRIAL_START	n/a	n/a	n/a	-999	0	3	[0, 0, 0]	n/a	0	0	0	n/a	n/a	0.0	0	0	0	FR3	1	R1293P
427.631	0.001	427790	TRIAL	n/a	n/a	n/a	-999	0	3	[0, 0, 0]	n/a	0	0	0	n/a	n/a	0.0	0	0	0	FR3	1	R1293P
427.632	1.945	427791	WAITING_START	n/a	n/a	n/a	-999	0	3	[0, 0, 0]	n/a	0	0	0	n/a	n/a	0.0	0	0	0	FR3	1	R1293P
429.577	10.0	429736	COUNTDOWN_START	n/a	n/a	n/a	-999	0	3	[0, 0, 0]	n/a	0	0	0	n/a	n/a	0.0	0	0	0	FR3	1	R1293P
429.577	10.429	429736	WAITING_END	n/a	n/a	n/a	-999	0	3	[0, 0, 0]	n/a	0	0	0	n/a	n/a	0.0	0	0	0	FR3	1	R1293P
440.006	0.001	440164	COUNTDOWN_END	n/a	n/a	n/a	-999	0	3	[0, 0, 0]	n/a	0	0	0	n/a	n/a	0.0	0	0	0	FR3	1	R1293P
440.007	1.156	440165	ORIENT_START	n/a	n/a	n/a	-999	0	3	[0, 0, 0]	n/a	0	0	0	n/a	n/a	0.0	0	0	0	FR3	1	R1293P
441.163	0.001	441321	ORIENT_END	n/a	n/a	n/a	-999	0	3	[0, 0, 0]	n/a	0	0	0	n/a	n/a	0.0	0	0	0	FR3	1	R1293P
441.164	0.883	441322	ENCODING_START	n/a	n/a	n/a	-999	0	3	[0, 0, 0]	n/a	0	0	0	n/a	n/a	0.0	0	0	0	FR3	1	R1293P
442.047	1.6	442205	WORD	n/a	wordpools/wordpool.txt	BLOOM	0	1	3	[0, 0, 0]	n/a	0	0	0	n/a	n/a	0.0	0	0	0	FR3	1	R1293P
443.679	1.051	443837	WORD_OFF	n/a	n/a	BLOOM	0	0	3	[0, 0, 0]	n/a	0	0	0	n/a	n/a	0.0	0	0	0	FR3	1	R1293P
444.73	1.6	444888	WORD	n/a	wordpools/wordpool.txt	CAT	1	1	3	[0, 0, 0]	n/a	0	0	0	n/a	n/a	0.0	0	0	0	FR3	1	R1293P
446.364	0.772	446522	WORD_OFF	n/a	n/a	CAT	1	0	3	[0, 0, 0]	n/a	0	0	0	n/a	n/a	0.0	0	0	0	FR3	1	R1293P
447.136	1.6	447294	WORD	n/a	wordpools/wordpool.txt	ROOM	2	0	3	[0, 0, 0]	n/a	0	0	0	n/a	n/a	0.0	0	0	0	FR3	1	R1293P
448.764	0.916	448922	WORD_OFF	n/a	n/a	ROOM	2	0	3	[0, 0, 0]	n/a	0	0	0	n/a	n/a	0.0	0	0	0	FR3	1	R1293P
449.68	1.6	449838	WORD	n/a	wordpools/wordpool.txt	BEAR	3	1	3	[0, 0, 0]	n/a	0	0	0	n/a	n/a	0.0	0	0	0	FR3	1	R1293P
451.315	1.078	451473	WORD_OFF	n/a	n/a	BEAR	3	0	3	[0, 0, 0]	n/a	0	0	0	n/a	n/a	0.0	0	0	0	FR3	1	R1293P
452.393	1.6	452551	WORD	n/a	wordpools/wordpool.txt	COW	4	1	3	[0, 0, 0]	n/a	0	0	0	n/a	n/a	0.0	0	0	0	FR3	1	R1293P
454.015	1.114	454173	WORD_OFF	n/a	n/a	COW	4	0	3	[0, 0, 0]	n/a	0	0	0	n/a	n/a	0.0	0	0	0	FR3	1	R1293P
455.129	1.6	455287	WORD	n/a	wordpools/wordpool.txt	WAVE	5	0	3	[0, 0, 0]	n/a	0	0	0	n/a	n/a	0.0	0	0	0	FR3	1	R1293P
456.765	1.04	456923	WORD_OFF	n/a	n/a	WAVE	5	0	3	[0, 0, 0]	n/a	0	0	0	n/a	n/a	0.0	0	0	0	FR3	1	R1293P
457.805	1.6	457962	WORD	n/a	wordpools/wordpool.txt	SPONGE	6	0	3	[0, 0, 0]	n/a	0	0	0	n/a	n/a	0.0	0	0	0	FR3	1	R1293P
459.416	0.919	459573	WORD_OFF	n/a	n/a	SPONGE	6	0	3	[0, 0, 0]	n/a	0	0	0	n/a	n/a	0.0	0	0	0	FR3	1	R1293P
460.335	1.6	460492	WORD	n/a	wordpools/wordpool.txt	SNAIL	7	1	3	[0, 0, 0]	n/a	0	0	0	n/a	n/a	0.0	0	0	0	FR3	1	R1293P
461.967	0.976	462124	WORD_OFF	n/a	n/a	SNAIL	7	0	3	[0, 0, 0]	n/a	0	0	0	n/a	n/a	0.0	0	0	0	FR3	1	R1293P
462.943	1.6	463100	WORD	n/a	wordpools/wordpool.txt	SEAL	8	0	3	[0, 0, 0]	n/a	0	0	0	n/a	n/a	0.0	0	0	0	FR3	1	R1293P
464.566	0.969	464723	WORD_OFF	n/a	n/a	SEAL	8	0	3	[0, 0, 0]	n/a	0	0	0	n/a	n/a	0.0	0	0	0	FR3	1	R1293P
465.535	1.6	465692	WORD	n/a	wordpools/wordpool.txt	SLEEVE	9	0	3	[0, 0, 0]	n/a	0	0	0	n/a	n/a	0.0	0	0	0	FR3	1	R1293P
467.168	1.091	467325	WORD_OFF	n/a	n/a	SLEEVE	9	0	3	[0, 0, 0]	n/a	0	0	0	n/a	n/a	0.0	0	0	0	FR3	1	R1293P
468.259	1.6	468416	WORD	n/a	wordpools/wordpool.txt	SNOW	10	0	3	[0, 0, 0]	n/a	0	0	0	n/a	n/a	0.0	0	0	0	FR3	1	R1293P
469.884	1.017	470041	WORD_OFF	n/a	n/a	SNOW	10	0	3	[0, 0, 0]	n/a	0	0	0	n/a	n/a	0.0	0	0	0	FR3	1	R1293P
470.901	1.6	471058	WORD	n/a	wordpools/wordpool.txt	FLEA	11	0	3	[0, 0, 0]	n/a	0	0	0	n/a	n/a	0.0	0	0	0	FR3	1	R1293P
472.519	0.001	472676	WORD_OFF	n/a	n/a	FLEA	11	0	3	[0, 0, 0]	n/a	0	0	0	n/a	n/a	0.0	0	0	0	FR3	1	R1293P
472.52	0.0	472677	DISTRACT_START	n/a	n/a	n/a	-999	0	3	[0, 0, 0]	n/a	0	0	0	n/a	n/a	0.0	0	0	0	FR3	1	R1293P
472.52	0.001	472677	ENCODING_END	n/a	n/a	n/a	-999	0	3	[0, 0, 0]	n/a	0	0	0	n/a	n/a	0.0	0	0	0	FR3	1	R1293P
472.521	0.014	472678	START	n/a	n/a	n/a	-999	0	3	[-999, -999, -999]	n/a	0	0	0	n/a	n/a	0.0	0	0	0	FR3	1	R1293P
472.535	2.801	472692	PROB	2.764	n/a	n/a	-999	0	3	[4, 2, 2]	8	0	0	0	n/a	n/a	0.0	0	0	0	FR3	1	R1293P
475.336	2.017	475493	PROB	1.986	n/a	n/a	-999	0	3	[5, 4, 3]	12	0	0	0	n/a	n/a	0.0	0	0	0	FR3	1	R1293P
477.353	2.333	477509	PROB	2.304	n/a	n/a	-999	0	3	[9, 2, 5]	16	0	0	0	n/a	n/a	0.0	0	0	0	FR3	1	R1293P
479.686	4.268	479842	PROB	4.239	n/a	n/a	-999	0	3	[9, 8, 1]	18	0	0	0	n/a	n/a	0.0	0	0	0	FR3	1	R1293P
483.954	2.301	484110	PROB	2.276	n/a	n/a	-999	0	3	[1, 3, 5]	9	0	0	0	n/a	n/a	0.0	0	0	0	FR3	1	R1293P
486.255	2.834	486411	PROB	2.799	n/a	n/a	-999	0	3	[9, 2, 5]	16	0	0	0	n/a	n/a	0.0	0	0	0	FR3	1	R1293P
489.089	2.2	489245	PROB	2.165	n/a	n/a	-999	0	3	[3, 1, 9]	13	0	0	0	n/a	n/a	0.0	0	0	0	FR3	1	R1293P
491.289	3.27	491445	PROB	3.27	n/a	n/a	-999	0	3	[5, 4, 9]	18	0	0	0	n/a	n/a	0.0	0	0	0	FR3	1	R1293P
494.559	0.013	494714	STOP	n/a	n/a	n/a	-999	0	3	[-999, -999, -999]	n/a	0	0	0	n/a	n/a	0.0	0	0	0	FR3	1	R1293P
494.572	0.566	494727	DISTRACT_END	n/a	n/a	n/a	-999	0	3	[0, 0, 0]	n/a	0	0	0	n/a	n/a	0.0	0	0	0	FR3	1	R1293P
495.138	1.6	495293	RETRIEVAL_ORIENT_START	n/a	n/a	n/a	-999	0	3	[0, 0, 0]	n/a	0	0	0	n/a	n/a	0.0	0	0	0	FR3	1	R1293P
496.773	0.0	496928	RETRIEVAL_ORIENT_END	n/a	n/a	n/a	-999	0	3	[0, 0, 0]	n/a	0	0	0	n/a	n/a	0.0	0	0	0	FR3	1	R1293P
496.773	1.569	496928	REC_START	n/a	n/a	n/a	-999	0	3	[0, 0, 0]	n/a	0	0	0	n/a	n/a	0.0	0	0	0	FR3	1	R1293P
498.342	0.51	498497	REC_WORD_VV	1.569	n/a	<>	-999	0	3	[0, 0, 0]	n/a	0	0	0	n/a	n/a	0.0	0	0	0	FR3	1	R1293P
498.852	0.675	499007	REC_WORD	2.079	n/a	BLOOM	1	1	3	[0, 0, 0]	n/a	0	0	0	n/a	n/a	0.0	0	0	0	FR3	1	R1293P
499.527	0.68	499682	REC_WORD	2.754	n/a	CAT	2	1	3	[0, 0, 0]	n/a	0	0	0	n/a	n/a	0.0	0	0	0	FR3	1	R1293P
500.207	0.64	500362	REC_WORD	3.434	n/a	COW	5	1	3	[0, 0, 0]	n/a	0	0	0	n/a	n/a	0.0	0	0	0	FR3	1	R1293P
500.847	0.57	501002	REC_WORD	4.074	n/a	CARE	-999	0	3	[0, 0, 0]	n/a	0	0	0	n/a	n/a	0.0	0	0	0	FR3	1	R1293P
501.417	0.535	501572	REC_WORD	4.644	n/a	NAIL	-999	0	3	[0, 0, 0]	n/a	0	0	0	n/a	n/a	0.0	0	0	0	FR3	1	R1293P
501.952	2.105	502107	REC_WORD	5.179	n/a	SNAIL	8	1	3	[0, 0, 0]	n/a	0	0	0	n/a	n/a	0.0	0	0	0	FR3	1	R1293P
504.057	11.865	504212	REC_WORD	7.284	n/a	FARM	-999	0	3	[0, 0, 0]	n/a	0	0	0	n/a	n/a	0.0	0	0	0	FR3	1	R1293P
515.922	10.864	516076	REC_WORD	19.149	n/a	BEAR	4	1	3	[0, 0, 0]	n/a	0	0	0	n/a	n/a	0.0	0	0	0	FR3	1	R1293P
526.786	0.0	526940	REC_END	n/a	n/a	n/a	-999	0	3	[0, 0, 0]	n/a	0	0	0	n/a	n/a	0.0	0	0	0	FR3	1	R1293P
526.786	0.016	526940	TRIAL_END	n/a	n/a	n/a	-999	0	3	[0, 0, 0]	n/a	0	0	0	n/a	n/a	0.0	0	0	0	FR3	1	R1293P
526.802	0.0	526956	TRIAL_START	n/a	n/a	n/a	-999	0	4	[0, 0, 0]	n/a	0	0	0	n/a	n/a	0.0	0	0	0	FR3	1	R1293P
526.802	0.001	526956	TRIAL	n/a	n/a	n/a	-999	0	4	[0, 0, 0]	n/a	0	0	0	n/a	n/a	0.0	0	0	0	FR3	1	R1293P
526.803	2.627	526957	WAITING_START	n/a	n/a	n/a	-999	0	4	[0, 0, 0]	n/a	0	0	0	n/a	n/a	0.0	0	0	0	FR3	1	R1293P
529.43	0.0	529584	WAITING_END	n/a	n/a	n/a	-999	0	4	[0, 0, 0]	n/a	0	0	0	n/a	n/a	0.0	0	0	0	FR3	1	R1293P
529.43	10.0	529584	COUNTDOWN_START	n/a	n/a	n/a	-999	0	4	[0, 0, 0]	n/a	0	0	0	n/a	n/a	0.0	0	0	0	FR3	1	R1293P
539.86	0.0	540013	COUNTDOWN_END	n/a	n/a	n/a	-999	0	4	[0, 0, 0]	n/a	0	0	0	n/a	n/a	0.0	0	0	0	FR3	1	R1293P
539.86	1.155	540013	ORIENT_START	n/a	n/a	n/a	-999	0	4	[0, 0, 0]	n/a	0	0	0	n/a	n/a	0.0	0	0	0	FR3	1	R1293P
541.015	0.001	541168	ORIENT_END	n/a	n/a	n/a	-999	0	4	[0, 0, 0]	n/a	0	0	0	n/a	n/a	0.0	0	0	0	FR3	1	R1293P
541.016	0.827	541169	ENCODING_START	n/a	n/a	n/a	-999	0	4	[0, 0, 0]	n/a	0	0	0	n/a	n/a	0.0	0	0	0	FR3	1	R1293P
541.843	1.6	541996	WORD	n/a	wordpools/wordpool.txt	WHEEL	0	1	4	[0, 0, 0]	n/a	0	0	0	n/a	n/a	0.0	0	0	0	FR3	1	R1293P
543.466	0.803	543619	WORD_OFF	n/a	n/a	WHEEL	0	0	4	[0, 0, 0]	n/a	0	0	0	n/a	n/a	0.0	0	0	0	FR3	1	R1293P
544.269	1.6	544422	WORD	n/a	wordpools/wordpool.txt	FENCE	1	1	4	[0, 0, 0]	n/a	0	0	0	n/a	n/a	0.0	0	0	0	FR3	1	R1293P
545.898	0.797	546051	WORD_OFF	n/a	n/a	FENCE	1	0	4	[0, 0, 0]	n/a	0	0	0	n/a	n/a	0.0	0	0	0	FR3	1	R1293P
546.695	1.6	546848	WORD	n/a	wordpools/wordpool.txt	SKY	2	0	4	[0, 0, 0]	n/a	0	0	0	n/a	n/a	0.0	0	0	0	FR3	1	R1293P
548.333	0.865	548486	WORD_OFF	n/a	n/a	SKY	2	0	4	[0, 0, 0]	n/a	0	0	0	n/a	n/a	0.0	0	0	0	FR3	1	R1293P
549.198	1.6	549351	WORD	n/a	wordpools/wordpool.txt	JUDGE	3	1	4	[0, 0, 0]	n/a	0	0	0	n/a	n/a	0.0	0	0	0	FR3	1	R1293P
550.833	0.796	550985	WORD_OFF	n/a	n/a	JUDGE	3	0	4	[0, 0, 0]	n/a	0	0	0	n/a	n/a	0.0	0	0	0	FR3	1	R1293P
551.629	1.6	551781	WORD	n/a	wordpools/wordpool.txt	LAND	4	1	4	[0, 0, 0]	n/a	0	0	0	n/a	n/a	0.0	0	0	0	FR3	1	R1293P
553.251	1.073	553403	WORD_OFF	n/a	n/a	LAND	4	0	4	[0, 0, 0]	n/a	0	0	0	n/a	n/a	0.0	0	0	0	FR3	1	R1293P
554.324	1.6	554476	WORD	n/a	wordpools/wordpool.txt	PEACH	5	1	4	[0, 0, 0]	n/a	0	0	0	n/a	n/a	0.0	0	0	0	FR3	1	R1293P
555.951	1.007	556103	WORD_OFF	n/a	n/a	PEACH	5	0	4	[0, 0, 0]	n/a	0	0	0	n/a	n/a	0.0	0	0	0	FR3	1	R1293P
556.958	1.6	557110	WORD	n/a	wordpools/wordpool.txt	GATE	6	0	4	[0, 0, 0]	n/a	0	0	0	n/a	n/a	0.0	0	0	0	FR3	1	R1293P
558.584	0.766	558736	WORD_OFF	n/a	n/a	GATE	6	0	4	[0, 0, 0]	n/a	0	0	0	n/a	n/a	0.0	0	0	0	FR3	1	R1293P
559.35	1.6	559502	WORD	n/a	wordpools/wordpool.txt	FILM	7	0	4	[0, 0, 0]	n/a	0	0	0	n/a	n/a	0.0	0	0	0	FR3	1	R1293P
560.986	1.134	561138	WORD_OFF	n/a	n/a	FILM	7	0	4	[0, 0, 0]	n/a	0	0	0	n/a	n/a	0.0	0	0	0	FR3	1	R1293P
562.12	1.6	562272	WORD	n/a	wordpools/wordpool.txt	FAN	8	0	4	[0, 0, 0]	n/a	0	0	0	n/a	n/a	0.0	0	0	0	FR3	1	R1293P
563.752	0.931	563904	WORD_OFF	n/a	n/a	FAN	8	0	4	[0, 0, 0]	n/a	0	0	0	n/a	n/a	0.0	0	0	0	FR3	1	R1293P
564.683	1.6	564835	WORD	n/a	wordpools/wordpool.txt	ARK	9	0	4	[0, 0, 0]	n/a	0	0	0	n/a	n/a	0.0	0	0	0	FR3	1	R1293P
566.32	1.02	566472	WORD_OFF	n/a	n/a	ARK	9	0	4	[0, 0, 0]	n/a	0	0	0	n/a	n/a	0.0	0	0	0	FR3	1	R1293P
567.34	1.6	567492	WORD	n/a	wordpools/wordpool.txt	HAND	10	0	4	[0, 0, 0]	n/a	0	0	0	n/a	n/a	0.0	0	0	0	FR3	1	R1293P
568.971	1.026	569123	WORD_OFF	n/a	n/a	HAND	10	0	4	[0, 0, 0]	n/a	0	0	0	n/a	n/a	0.0	0	0	0	FR3	1	R1293P
569.997	1.6	570148	WORD	n/a	wordpools/wordpool.txt	PEN	11	0	4	[0, 0, 0]	n/a	0	0	0	n/a	n/a	0.0	0	0	0	FR3	1	R1293P
571.62	0.001	571771	WORD_OFF	n/a	n/a	PEN	11	0	4	[0, 0, 0]	n/a	0	0	0	n/a	n/a	0.0	0	0	0	FR3	1	R1293P
571.621	0.0	571772	DISTRACT_START	n/a	n/a	n/a	-999	0	4	[0, 0, 0]	n/a	0	0	0	n/a	n/a	0.0	0	0	0	FR3	1	R1293P
571.621	0.001	571772	ENCODING_END	n/a	n/a	n/a	-999	0	4	[0, 0, 0]	n/a	0	0	0	n/a	n/a	0.0	0	0	0	FR3	1	R1293P
571.622	0.014	571773	START	n/a	n/a	n/a	-999	0	4	[-999, -999, -999]	n/a	0	0	0	n/a	n/a	0.0	0	0	0	FR3	1	R1293P
571.636	2.968	571787	PROB	2.941	n/a	n/a	-999	0	4	[2, 9, 4]	15	0	0	0	n/a	n/a	0.0	0	0	0	FR3	1	R1293P
574.604	2.518	574755	PROB	2.486	n/a	n/a	-999	0	4	[2, 3, 4]	9	0	0	0	n/a	n/a	0.0	0	0	0	FR3	1	R1293P
577.122	2.317	577273	PROB	2.28	n/a	n/a	-999	0	4	[8, 9, 5]	22	0	0	0	n/a	n/a	0.0	0	0	0	FR3	1	R1293P
579.439	2.366	579590	PROB	2.339	n/a	n/a	-999	0	4	[4, 1, 9]	14	0	0	0	n/a	n/a	0.0	0	0	0	FR3	1	R1293P
581.805	2.551	581956	PROB	2.525	n/a	n/a	-999	0	4	[9, 5, 3]	17	0	0	0	n/a	n/a	0.0	0	0	0	FR3	1	R1293P
584.356	2.834	584507	PROB	2.807	n/a	n/a	-999	0	4	[2, 4, 9]	15	0	0	0	n/a	n/a	0.0	0	0	0	FR3	1	R1293P
587.19	3.65	587341	PROB	3.627	n/a	n/a	-999	0	4	[1, 9, 9]	19	0	0	0	n/a	n/a	0.0	0	0	0	FR3	1	R1293P
590.84	2.546	590990	PROB	2.546	n/a	n/a	-999	0	4	[6, 1, 2]	9	0	0	0	n/a	n/a	0.0	0	0	0	FR3	1	R1293P
593.386	0.022	593536	STOP	n/a	n/a	n/a	-999	0	4	[-999, -999, -999]	n/a	0	0	0	n/a	n/a	0.0	0	0	0	FR3	1	R1293P
593.408	0.627	593558	DISTRACT_END	n/a	n/a	n/a	-999	0	4	[0, 0, 0]	n/a	0	0	0	n/a	n/a	0.0	0	0	0	FR3	1	R1293P
594.035	1.6	594185	RETRIEVAL_ORIENT_START	n/a	n/a	n/a	-999	0	4	[0, 0, 0]	n/a	0	0	0	n/a	n/a	0.0	0	0	0	FR3	1	R1293P
595.641	0.001	595791	RETRIEVAL_ORIENT_END	n/a	n/a	n/a	-999	0	4	[0, 0, 0]	n/a	0	0	0	n/a	n/a	0.0	0	0	0	FR3	1	R1293P
595.642	1.654	595792	REC_START	n/a	n/a	n/a	-999	0	4	[0, 0, 0]	n/a	0	0	0	n/a	n/a	0.0	0	0	0	FR3	1	R1293P
597.296	0.555	597446	REC_WORD	1.654	n/a	WHEEL	1	1	4	[0, 0, 0]	n/a	0	0	0	n/a	n/a	0.0	0	0	0	FR3	1	R1293P
597.851	0.535	598001	REC_WORD	2.209	n/a	PEACH	6	1	4	[0, 0, 0]	n/a	0	0	0	n/a	n/a	0.0	0	0	0	FR3	1	R1293P
598.386	0.57	598536	REC_WORD	2.744	n/a	JUDGE	4	1	4	[0, 0, 0]	n/a	0	0	0	n/a	n/a	0.0	0	0	0	FR3	1	R1293P
598.956	2.9	599106	REC_WORD	3.314	n/a	LAND	5	1	4	[0, 0, 0]	n/a	0	0	0	n/a	n/a	0.0	0	0	0	FR3	1	R1293P
601.856	0.72	602006	REC_WORD	6.214	n/a	BARN	-999	0	4	[0, 0, 0]	n/a	0	0	0	n/a	n/a	0.0	0	0	0	FR3	1	R1293P
602.576	23.077	602726	REC_WORD	6.934	n/a	FENCE	2	1	4	[0, 0, 0]	n/a	0	0	0	n/a	n/a	0.0	0	0	0	FR3	1	R1293P
625.653	0.001	625801	REC_END	n/a	n/a	n/a	-999	0	4	[0, 0, 0]	n/a	0	0	0	n/a	n/a	0.0	0	0	0	FR3	1	R1293P
625.654	0.022	625802	TRIAL_END	n/a	n/a	n/a	-999	0	4	[0, 0, 0]	n/a	0	0	0	n/a	n/a	0.0	0	0	0	FR3	1	R1293P
625.676	0.0	625824	TRIAL	n/a	n/a	n/a	-999	0	5	[0, 0, 0]	n/a	0	0	0	n/a	n/a	0.0	0	0	0	FR3	1	R1293P
625.676	0.001	625824	TRIAL_START	n/a	n/a	n/a	-999	0	5	[0, 0, 0]	n/a	0	0	0	n/a	n/a	0.0	0	0	0	FR3	1	R1293P
625.677	2.755	625825	WAITING_START	n/a	n/a	n/a	-999	0	5	[0, 0, 0]	n/a	0	0	0	n/a	n/a	0.0	0	0	0	FR3	1	R1293P
628.432	10.0	628580	COUNTDOWN_START	n/a	n/a	n/a	-999	0	5	[0, 0, 0]	n/a	0	0	0	n/a	n/a	0.0	0	0	0	FR3	1	R1293P
628.432	10.429	628580	WAITING_END	n/a	n/a	n/a	-999	0	5	[0, 0, 0]	n/a	0	0	0	n/a	n/a	0.0	0	0	0	FR3	1	R1293P
638.861	0.001	639009	COUNTDOWN_END	n/a	n/a	n/a	-999	0	5	[0, 0, 0]	n/a	0	0	0	n/a	n/a	0.0	0	0	0	FR3	1	R1293P
638.862	1.105	639010	ORIENT_START	n/a	n/a	n/a	-999	0	5	[0, 0, 0]	n/a	0	0	0	n/a	n/a	0.0	0	0	0	FR3	1	R1293P
639.967	0.001	640115	ORIENT_END	n/a	n/a	n/a	-999	0	5	[0, 0, 0]	n/a	0	0	0	n/a	n/a	0.0	0	0	0	FR3	1	R1293P
639.968	1.02	640116	ENCODING_START	n/a	n/a	n/a	-999	0	5	[0, 0, 0]	n/a	0	0	0	n/a	n/a	0.0	0	0	0	FR3	1	R1293P
640.988	1.6	641136	WORD	n/a	wordpools/wordpool.txt	BRANCH	0	1	5	[0, 0, 0]	n/a	0	0	0	n/a	n/a	0.0	0	0	0	FR3	1	R1293P
642.476	0.0	642624	STIM_ON	n/a	n/a	BRANCH	0	1	5	[0, 0, 0]	n/a	1	0	500	LA7	LA8	1000.0	200	100	200	FR3	1	R1293P
642.617	0.359	642765	WORD_OFF	n/a	n/a	BRANCH	0	0	5	[0, 0, 0]	n/a	0	0	500	LA7	LA8	1000.0	200	100	200	FR3	1	R1293P
642.976	0.468	643124	STIM_OFF	n/a	n/a	n/a	0	0	5	[0, 0, 0]	n/a	0	0	500	LA7	LA8	1000.0	200	100	200	FR3	1	R1293P
643.444	1.6	643592	WORD	n/a	wordpools/wordpool.txt	CHIEF	1	1	5	[0, 0, 0]	n/a	0	0	0	n/a	n/a	0.0	0	0	0	FR3	1	R1293P
645.068	1.091	645215	WORD_OFF	n/a	n/a	CHIEF	1	0	5	[0, 0, 0]	n/a	0	0	0	n/a	n/a	0.0	0	0	0	FR3	1	R1293P
646.159	1.6	646306	WORD	n/a	wordpools/wordpool.txt	BATH	2	1	5	[0, 0, 0]	n/a	0	0	0	n/a	n/a	0.0	0	0	0	FR3	1	R1293P
647.784	1.083	647931	WORD_OFF	n/a	n/a	BATH	2	0	5	[0, 0, 0]	n/a	0	0	0	n/a	n/a	0.0	0	0	0	FR3	1	R1293P
648.867	1.6	649014	WORD	n/a	wordpools/wordpool.txt	CRANE	3	1	5	[0, 0, 0]	n/a	0	0	0	n/a	n/a	0.0	0	0	0	FR3	1	R1293P
650.486	0.946	650633	WORD_OFF	n/a	n/a	CRANE	3	0	5	[0, 0, 0]	n/a	0	0	0	n/a	n/a	0.0	0	0	0	FR3	1	R1293P
651.432	1.6	651579	WORD	n/a	wordpools/wordpool.txt	TOOL	4	1	5	[0, 0, 0]	n/a	0	0	0	n/a	n/a	0.0	0	0	0	FR3	1	R1293P
653.053	1.114	653200	WORD_OFF	n/a	n/a	TOOL	4	0	5	[0, 0, 0]	n/a	0	0	0	n/a	n/a	0.0	0	0	0	FR3	1	R1293P
654.167	1.6	654314	WORD	n/a	wordpools/wordpool.txt	CORD	5	0	5	[0, 0, 0]	n/a	0	0	0	n/a	n/a	0.0	0	0	0	FR3	1	R1293P
655.617	0.0	655764	STIM_ON	n/a	n/a	CORD	5	0	5	[0, 0, 0]	n/a	1	0	500	LA7	LA8	1000.0	200	100	200	FR3	1	R1293P
655.803	0.314	655950	WORD_OFF	n/a	n/a	CORD	5	0	5	[0, 0, 0]	n/a	0	0	500	LA7	LA8	1000.0	200	100	200	FR3	1	R1293P
656.117	0.79	656264	STIM_OFF	n/a	n/a	n/a	5	0	5	[0, 0, 0]	n/a	0	0	500	LA7	LA8	1000.0	200	100	200	FR3	1	R1293P
656.907	1.6	657054	WORD	n/a	wordpools/wordpool.txt	MOOSE	6	0	5	[0, 0, 0]	n/a	0	0	0	n/a	n/a	0.0	0	0	0	FR3	1	R1293P
658.521	1.11	658668	WORD_OFF	n/a	n/a	MOOSE	6	0	5	[0, 0, 0]	n/a	0	0	0	n/a	n/a	0.0	0	0	0	FR3	1	R1293P
659.631	1.6	659778	WORD	n/a	wordpools/wordpool.txt	FORK	7	0	5	[0, 0, 0]	n/a	0	0	0	n/a	n/a	0.0	0	0	0	FR3	1	R1293P
661.254	0.889	661401	WORD_OFF	n/a	n/a	FORK	7	0	5	[0, 0, 0]	n/a	0	0	0	n/a	n/a	0.0	0	0	0	FR3	1	R1293P
662.143	1.6	662290	WORD	n/a	wordpools/wordpool.txt	VEST	8	0	5	[0, 0, 0]	n/a	0	0	0	n/a	n/a	0.0	0	0	0	FR3	1	R1293P
663.77	0.899	663916	WORD_OFF	n/a	n/a	VEST	8	0	5	[0, 0, 0]	n/a	0	0	0	n/a	n/a	0.0	0	0	0	FR3	1	R1293P
664.669	1.6	664815	WORD	n/a	wordpools/wordpool.txt	BOAT	9	0	5	[0, 0, 0]	n/a	0	0	0	n/a	n/a	0.0	0	0	0	FR3	1	R1293P
666.305	1.067	666451	WORD_OFF	n/a	n/a	BOAT	9	0	5	[0, 0, 0]	n/a	0	0	0	n/a	n/a	0.0	0	0	0	FR3	1	R1293P
667.372	1.6	667518	WORD	n/a	wordpools/wordpool.txt	SHIELD	10	0	5	[0, 0, 0]	n/a	0	0	0	n/a	n/a	0.0	0	0	0	FR3	1	R1293P
668.823	0.0	668969	STIM_ON	n/a	n/a	SHIELD	10	0	5	[0, 0, 0]	n/a	1	0	500	LA7	LA8	1000.0	200	100	200	FR3	1	R1293P
669.006	0.317	669152	WORD_OFF	n/a	n/a	SHIELD	10	0	5	[0, 0, 0]	n/a	0	0	500	LA7	LA8	1000.0	200	100	200	FR3	1	R1293P
669.323	0.648	669469	STIM_OFF	n/a	n/a	n/a	10	0	5	[0, 0, 0]	n/a	0	0	500	LA7	LA8	1000.0	200	100	200	FR3	1	R1293P
669.971	1.6	670117	WORD	n/a	wordpools/wordpool.txt	TOAD	11	0	5	[0, 0, 0]	n/a	0	0	0	n/a	n/a	0.0	0	0	0	FR3	1	R1293P
671.605	0.001	671751	WORD_OFF	n/a	n/a	TOAD	11	0	5	[0, 0, 0]	n/a	0	0	0	n/a	n/a	0.0	0	0	0	FR3	1	R1293P
671.606	0.001	671752	ENCODING_END	n/a	n/a	n/a	-999	0	5	[0, 0, 0]	n/a	0	0	0	n/a	n/a	0.0	0	0	0	FR3	1	R1293P
671.607	0.0	671753	DISTRACT_START	n/a	n/a	n/a	-999	0	5	[0, 0, 0]	n/a	0	0	0	n/a	n/a	0.0	0	0	0	FR3	1	R1293P
671.607	0.015	671753	START	n/a	n/a	n/a	-999	0	5	[-999, -999, -999]	n/a	0	0	0	n/a	n/a	0.0	0	0	0	FR3	1	R1293P
671.622	3.802	671768	PROB	3.778	n/a	n/a	-999	0	5	[5, 6, 9]	20	0	0	0	n/a	n/a	0.0	0	0	0	FR3	1	R1293P
675.424	3.249	675570	PROB	3.223	n/a	n/a	-999	0	5	[1, 4, 8]	13	0	0	0	n/a	n/a	0.0	0	0	0	FR3	1	R1293P
678.673	2.001	678819	PROB	1.965	n/a	n/a	-999	0	5	[8, 2, 4]	14	0	0	0	n/a	n/a	0.0	0	0	0	FR3	1	R1293P
680.674	1.983	680820	PROB	1.949	n/a	n/a	-999	0	5	[6, 3, 3]	12	0	0	0	n/a	n/a	0.0	0	0	0	FR3	1	R1293P
682.657	2.819	682802	PROB	2.783	n/a	n/a	-999	0	5	[2, 7, 8]	17	0	0	0	n/a	n/a	0.0	0	0	0	FR3	1	R1293P
685.476	2.282	685621	PROB	2.259	n/a	n/a	-999	0	5	[6, 4, 5]	15	0	0	0	n/a	n/a	0.0	0	0	0	FR3	1	R1293P
687.758	2.218	687903	PROB	2.186	n/a	n/a	-999	0	5	[2, 5, 6]	13	0	0	0	n/a	n/a	0.0	0	0	0	FR3	1	R1293P
689.976	2.48	690121	PROB	2.48	n/a	n/a	-999	0	5	[8, 7, 3]	18	0	0	0	n/a	n/a	0.0	0	0	0	FR3	1	R1293P
692.456	0.021	692601	STOP	n/a	n/a	n/a	-999	0	5	[-999, -999, -999]	n/a	0	0	0	n/a	n/a	0.0	0	0	0	FR3	1	R1293P
692.477	0.509	692622	DISTRACT_END	n/a	n/a	n/a	-999	0	5	[0, 0, 0]	n/a	0	0	0	n/a	n/a	0.0	0	0	0	FR3	1	R1293P
692.986	1.6	693131	RETRIEVAL_ORIENT_START	n/a	n/a	n/a	-999	0	5	[0, 0, 0]	n/a	0	0	0	n/a	n/a	0.0	0	0	0	FR3	1	R1293P
694.71	0.001	694855	RETRIEVAL_ORIENT_END	n/a	n/a	n/a	-999	0	5	[0, 0, 0]	n/a	0	0	0	n/a	n/a	0.0	0	0	0	FR3	1	R1293P
694.711	2.389	694856	REC_START	n/a	n/a	n/a	-999	0	5	[0, 0, 0]	n/a	0	0	0	n/a	n/a	0.0	0	0	0	FR3	1	R1293P
697.1	1.0	697245	REC_WORD_VV	2.389	n/a	<>	-999	0	5	[0, 0, 0]	n/a	0	0	0	n/a	n/a	0.0	0	0	0	FR3	1	R1293P
698.1	0.326	698245	REC_WORD_VV	3.389	n/a	<>	-999	0	5	[0, 0, 0]	n/a	0	0	0	n/a	n/a	0.0	0	0	0	FR3	1	R1293P
698.426	0.684	698571	REC_WORD	3.715	n/a	BRANCH	1	1	5	[0, 0, 0]	n/a	0	0	0	n/a	n/a	0.0	0	0	0	FR3	1	R1293P
699.11	0.73	699255	REC_WORD	4.399	n/a	CHIEF	2	1	5	[0, 0, 0]	n/a	0	0	0	n/a	n/a	0.0	0	0	0	FR3	1	R1293P
699.84	0.55	699985	REC_WORD	5.129	n/a	HOOK	-999	0	5	[0, 0, 0]	n/a	0	0	0	n/a	n/a	0.0	0	0	0	FR3	1	R1293P
700.39	1.555	700535	REC_WORD	5.679	n/a	CRANE	4	1	5	[0, 0, 0]	n/a	0	0	0	n/a	n/a	0.0	0	0	0	FR3	1	R1293P
701.945	1.04	702089	REC_WORD	7.234	n/a	TOOL	5	1	5	[0, 0, 0]	n/a	0	0	0	n/a	n/a	0.0	0	0	0	FR3	1	R1293P
702.985	21.737	703129	REC_WORD	8.274	n/a	BATH	3	1	5	[0, 0, 0]	n/a	0	0	0	n/a	n/a	0.0	0	0	0	FR3	1	R1293P
724.722	0.001	724865	REC_END	n/a	n/a	n/a	-999	0	5	[0, 0, 0]	n/a	0	0	0	n/a	n/a	0.0	0	0	0	FR3	1	R1293P
724.723	0.014	724866	TRIAL_END	n/a	n/a	n/a	-999	0	5	[0, 0, 0]	n/a	0	0	0	n/a	n/a	0.0	0	0	0	FR3	1	R1293P
724.737	0.0	724880	TRIAL_START	n/a	n/a	n/a	-999	0	6	[0, 0, 0]	n/a	0	0	0	n/a	n/a	0.0	0	0	0	FR3	1	R1293P
724.737	0.001	724880	TRIAL	n/a	n/a	n/a	-999	0	6	[0, 0, 0]	n/a	0	0	0	n/a	n/a	0.0	0	0	0	FR3	1	R1293P
724.738	10.297	724881	WAITING_START	n/a	n/a	n/a	-999	0	6	[0, 0, 0]	n/a	0	0	0	n/a	n/a	0.0	0	0	0	FR3	1	R1293P
735.035	0.001	735178	WAITING_END	n/a	n/a	n/a	-999	0	6	[0, 0, 0]	n/a	0	0	0	n/a	n/a	0.0	0	0	0	FR3	1	R1293P
735.036	10.0	735179	COUNTDOWN_START	n/a	n/a	n/a	-999	0	6	[0, 0, 0]	n/a	0	0	0	n/a	n/a	0.0	0	0	0	FR3	1	R1293P
745.465	0.0	745607	COUNTDOWN_END	n/a	n/a	n/a	-999	0	6	[0, 0, 0]	n/a	0	0	0	n/a	n/a	0.0	0	0	0	FR3	1	R1293P
745.465	1.072	745607	ORIENT_START	n/a	n/a	n/a	-999	0	6	[0, 0, 0]	n/a	0	0	0	n/a	n/a	0.0	0	0	0	FR3	1	R1293P
746.537	0.001	746679	ORIENT_END	n/a	n/a	n/a	-999	0	6	[0, 0, 0]	n/a	0	0	0	n/a	n/a	0.0	0	0	0	FR3	1	R1293P
746.538	1.07	746680	ENCODING_START	n/a	n/a	n/a	-999	0	6	[0, 0, 0]	n/a	0	0	0	n/a	n/a	0.0	0	0	0	FR3	1	R1293P
747.608	1.6	747750	WORD	n/a	wordpools/wordpool.txt	BED	0	1	6	[0, 0, 0]	n/a	0	0	0	n/a	n/a	0.0	0	0	0	FR3	1	R1293P
749.238	1.108	749380	WORD_OFF	n/a	n/a	BED	0	0	6	[0, 0, 0]	n/a	0	0	0	n/a	n/a	0.0	0	0	0	FR3	1	R1293P
750.346	1.6	750488	WORD	n/a	wordpools/wordpool.txt	GUARD	1	0	6	[0, 0, 0]	n/a	0	0	0	n/a	n/a	0.0	0	0	0	FR3	1	R1293P
751.972	0.775	752114	WORD_OFF	n/a	n/a	GUARD	1	0	6	[0, 0, 0]	n/a	0	0	0	n/a	n/a	0.0	0	0	0	FR3	1	R1293P
752.747	1.6	752889	WORD	n/a	wordpools/wordpool.txt	BOOT	2	0	6	[0, 0, 0]	n/a	0	0	0	n/a	n/a	0.0	0	0	0	FR3	1	R1293P
754.372	0.768	754514	WORD_OFF	n/a	n/a	BOOT	2	0	6	[0, 0, 0]	n/a	0	0	0	n/a	n/a	0.0	0	0	0	FR3	1	R1293P
755.14	1.6	755282	WORD	n/a	wordpools/wordpool.txt	CLIFF	3	1	6	[0, 0, 0]	n/a	0	0	0	n/a	n/a	0.0	0	0	0	FR3	1	R1293P
756.772	1.01	756913	WORD_OFF	n/a	n/a	CLIFF	3	0	6	[0, 0, 0]	n/a	0	0	0	n/a	n/a	0.0	0	0	0	FR3	1	R1293P
757.782	1.6	757923	WORD	n/a	wordpools/wordpool.txt	STICK	4	0	6	[0, 0, 0]	n/a	0	0	0	n/a	n/a	0.0	0	0	0	FR3	1	R1293P
759.406	0.759	759547	WORD_OFF	n/a	n/a	STICK	4	0	6	[0, 0, 0]	n/a	0	0	0	n/a	n/a	0.0	0	0	0	FR3	1	R1293P
760.165	1.6	760306	WORD	n/a	wordpools/wordpool.txt	STEM	5	0	6	[0, 0, 0]	n/a	0	0	0	n/a	n/a	0.0	0	0	0	FR3	1	R1293P
761.789	0.827	761930	WORD_OFF	n/a	n/a	STEM	5	0	6	[0, 0, 0]	n/a	0	0	0	n/a	n/a	0.0	0	0	0	FR3	1	R1293P
762.616	1.6	762757	WORD	n/a	wordpools/wordpool.txt	SALT	6	0	6	[0, 0, 0]	n/a	0	0	0	n/a	n/a	0.0	0	0	0	FR3	1	R1293P
764.241	0.853	764382	WORD_OFF	n/a	n/a	SALT	6	0	6	[0, 0, 0]	n/a	0	0	0	n/a	n/a	0.0	0	0	0	FR3	1	R1293P
765.094	1.6	765235	WORD	n/a	wordpools/wordpool.txt	CHAIR	7	1	6	[0, 0, 0]	n/a	0	0	0	n/a	n/a	0.0	0	0	0	FR3	1	R1293P
766.723	1.007	766864	WORD_OFF	n/a	n/a	CHAIR	7	0	6	[0, 0, 0]	n/a	0	0	0	n/a	n/a	0.0	0	0	0	FR3	1	R1293P
767.73	1.6	767871	WORD	n/a	wordpools/wordpool.txt	INK	8	0	6	[0, 0, 0]	n/a	0	0	0	n/a	n/a	0.0	0	0	0	FR3	1	R1293P
769.341	0.909	769482	WORD_OFF	n/a	n/a	INK	8	0	6	[0, 0, 0]	n/a	0	0	0	n/a	n/a	0.0	0	0	0	FR3	1	R1293P
770.25	1.6	770391	WORD	n/a	wordpools/wordpool.txt	CAKE	9	0	6	[0, 0, 0]	n/a	0	0	0	n/a	n/a	0.0	0	0	0	FR3	1	R1293P
771.874	0.908	772015	WORD_OFF	n/a	n/a	CAKE	9	0	6	[0, 0, 0]	n/a	0	0	0	n/a	n/a	0.0	0	0	0	FR3	1	R1293P
772.782	1.6	772923	WORD	n/a	wordpools/wordpool.txt	CLOWN	10	0	6	[0, 0, 0]	n/a	0	0	0	n/a	n/a	0.0	0	0	0	FR3	1	R1293P
774.409	1.077	774550	WORD_OFF	n/a	n/a	CLOWN	10	0	6	[0, 0, 0]	n/a	0	0	0	n/a	n/a	0.0	0	0	0	FR3	1	R1293P
775.486	1.6	775626	WORD	n/a	wordpools/wordpool.txt	ROCK	11	0	6	[0, 0, 0]	n/a	0	0	0	n/a	n/a	0.0	0	0	0	FR3	1	R1293P
777.11	0.0	777250	WORD_OFF	n/a	n/a	ROCK	11	0	6	[0, 0, 0]	n/a	0	0	0	n/a	n/a	0.0	0	0	0	FR3	1	R1293P
777.11	0.001	777250	ENCODING_END	n/a	n/a	n/a	-999	0	6	[0, 0, 0]	n/a	0	0	0	n/a	n/a	0.0	0	0	0	FR3	1	R1293P
777.111	0.0	777251	DISTRACT_START	n/a	n/a	n/a	-999	0	6	[0, 0, 0]	n/a	0	0	0	n/a	n/a	0.0	0	0	0	FR3	1	R1293P
777.111	0.015	777251	START	n/a	n/a	n/a	-999	0	6	[-999, -999, -999]	n/a	0	0	0	n/a	n/a	0.0	0	0	0	FR3	1	R1293P
777.126	3.284	777266	PROB	3.247	n/a	n/a	-999	0	6	[8, 2, 6]	16	0	0	0	n/a	n/a	0.0	0	0	0	FR3	1	R1293P
780.41	2.416	780550	PROB	2.385	n/a	n/a	-999	0	6	[6, 8, 6]	22	0	0	0	n/a	n/a	0.0	0	0	0	FR3	1	R1293P
782.826	4.835	782966	PROB	4.806	n/a	n/a	-999	0	6	[1, 5, 4]	10	0	0	0	n/a	n/a	0.0	0	0	0	FR3	1	R1293P
787.661	2.334	787801	PROB	2.308	n/a	n/a	-999	0	6	[3, 2, 2]	7	0	0	0	n/a	n/a	0.0	0	0	0	FR3	1	R1293P
789.995	2.234	790135	PROB	2.206	n/a	n/a	-999	0	6	[2, 3, 3]	8	0	0	0	n/a	n/a	0.0	0	0	0	FR3	1	R1293P
792.229	3.284	792369	PROB	3.259	n/a	n/a	-999	0	6	[5, 1, 9]	15	0	0	0	n/a	n/a	0.0	0	0	0	FR3	1	R1293P
795.513	2.736	795652	PROB	2.736	n/a	n/a	-999	0	6	[6, 5, 9]	20	0	0	0	n/a	n/a	0.0	0	0	0	FR3	1	R1293P
798.249	0.015	798388	STOP	n/a	n/a	n/a	-999	0	6	[-999, -999, -999]	n/a	0	0	0	n/a	n/a	0.0	0	0	0	FR3	1	R1293P
798.264	0.582	798403	DISTRACT_END	n/a	n/a	n/a	-999	0	6	[0, 0, 0]	n/a	0	0	0	n/a	n/a	0.0	0	0	0	FR3	1	R1293P
798.846	1.6	798985	RETRIEVAL_ORIENT_START	n/a	n/a	n/a	-999	0	6	[0, 0, 0]	n/a	0	0	0	n/a	n/a	0.0	0	0	0	FR3	1	R1293P
800.431	0.001	800570	RETRIEVAL_ORIENT_END	n/a	n/a	n/a	-999	0	6	[0, 0, 0]	n/a	0	0	0	n/a	n/a	0.0	0	0	0	FR3	1	R1293P
800.432	2.314	800571	REC_START	n/a	n/a	n/a	-999	0	6	[0, 0, 0]	n/a	0	0	0	n/a	n/a	0.0	0	0	0	FR3	1	R1293P
802.746	0.681	802885	REC_WORD_VV	2.314	n/a	<>	-999	0	6	[0, 0, 0]	n/a	0	0	0	n/a	n/a	0.0	0	0	0	FR3	1	R1293P
803.427	1.399	803566	REC_WORD	2.995	n/a	BED	1	1	6	[0, 0, 0]	n/a	0	0	0	n/a	n/a	0.0	0	0	0	FR3	1	R1293P
804.826	1.505	804965	REC_WORD	4.394	n/a	CHAIR	8	1	6	[0, 0, 0]	n/a	0	0	0	n/a	n/a	0.0	0	0	0	FR3	1	R1293P
806.331	2.195	806470	REC_WORD	5.899	n/a	CLIFF	4	1	6	[0, 0, 0]	n/a	0	0	0	n/a	n/a	0.0	0	0	0	FR3	1	R1293P
808.526	4.846	808665	REC_WORD	8.094	n/a	PEN	-999	0	6	[0, 0, 0]	n/a	0	0	0	n/a	n/a	0.0	0	0	0	FR3	1	R1293P
813.372	2.209	813510	REC_WORD	12.94	n/a	WALK	-999	0	6	[0, 0, 0]	n/a	0	0	0	n/a	n/a	0.0	0	0	0	FR3	1	R1293P
815.581	14.863	815719	REC_WORD	15.149	n/a	SEAT	-999	0	6	[0, 0, 0]	n/a	0	0	0	n/a	n/a	0.0	0	0	0	FR3	1	R1293P
830.444	0.0	830582	REC_END	n/a	n/a	n/a	-999	0	6	[0, 0, 0]	n/a	0	0	0	n/a	n/a	0.0	0	0	0	FR3	1	R1293P
830.444	0.014	830582	TRIAL_END	n/a	n/a	n/a	-999	0	6	[0, 0, 0]	n/a	0	0	0	n/a	n/a	0.0	0	0	0	FR3	1	R1293P
830.458	0.001	830596	TRIAL_START	n/a	n/a	n/a	-999	0	7	[0, 0, 0]	n/a	0	0	0	n/a	n/a	0.0	0	0	0	FR3	1	R1293P
830.459	0.0	830597	TRIAL	n/a	n/a	n/a	-999	0	7	[0, 0, 0]	n/a	0	0	0	n/a	n/a	0.0	0	0	0	FR3	1	R1293P
830.459	35.734	830597	WAITING_START	n/a	n/a	n/a	-999	0	7	[0, 0, 0]	n/a	0	0	0	n/a	n/a	0.0	0	0	0	FR3	1	R1293P
866.193	0.001	866329	WAITING_END	n/a	n/a	n/a	-999	0	7	[0, 0, 0]	n/a	0	0	0	n/a	n/a	0.0	0	0	0	FR3	1	R1293P
866.194	10.0	866330	COUNTDOWN_START	n/a	n/a	n/a	-999	0	7	[0, 0, 0]	n/a	0	0	0	n/a	n/a	0.0	0	0	0	FR3	1	R1293P
876.623	0.001	876758	COUNTDOWN_END	n/a	n/a	n/a	-999	0	7	[0, 0, 0]	n/a	0	0	0	n/a	n/a	0.0	0	0	0	FR3	1	R1293P
876.624	1.204	876759	ORIENT_START	n/a	n/a	n/a	-999	0	7	[0, 0, 0]	n/a	0	0	0	n/a	n/a	0.0	0	0	0	FR3	1	R1293P
877.828	0.0	877963	ORIENT_END	n/a	n/a	n/a	-999	0	7	[0, 0, 0]	n/a	0	0	0	n/a	n/a	0.0	0	0	0	FR3	1	R1293P
877.828	1.127	877963	ENCODING_START	n/a	n/a	n/a	-999	0	7	[0, 0, 0]	n/a	0	0	0	n/a	n/a	0.0	0	0	0	FR3	1	R1293P
878.955	1.6	879090	WORD	n/a	wordpools/wordpool.txt	HOLE	0	1	7	[0, 0, 0]	n/a	0	0	0	n/a	n/a	0.0	0	0	0	FR3	1	R1293P
880.578	1.023	880713	WORD_OFF	n/a	n/a	HOLE	0	0	7	[0, 0, 0]	n/a	0	0	0	n/a	n/a	0.0	0	0	0	FR3	1	R1293P
881.601	1.6	881736	WORD	n/a	wordpools/wordpool.txt	PEAR	1	1	7	[0, 0, 0]	n/a	0	0	0	n/a	n/a	0.0	0	0	0	FR3	1	R1293P
883.229	1.037	883364	WORD_OFF	n/a	n/a	PEAR	1	0	7	[0, 0, 0]	n/a	0	0	0	n/a	n/a	0.0	0	0	0	FR3	1	R1293P
884.266	1.6	884401	WORD	n/a	wordpools/wordpool.txt	MOLE	2	0	7	[0, 0, 0]	n/a	0	0	0	n/a	n/a	0.0	0	0	0	FR3	1	R1293P
885.896	0.921	886031	WORD_OFF	n/a	n/a	MOLE	2	0	7	[0, 0, 0]	n/a	0	0	0	n/a	n/a	0.0	0	0	0	FR3	1	R1293P
886.817	1.6	886952	WORD	n/a	wordpools/wordpool.txt	TENT	3	0	7	[0, 0, 0]	n/a	0	0	0	n/a	n/a	0.0	0	0	0	FR3	1	R1293P
888.447	0.795	888581	WORD_OFF	n/a	n/a	TENT	3	0	7	[0, 0, 0]	n/a	0	0	0	n/a	n/a	0.0	0	0	0	FR3	1	R1293P
889.242	1.6	889376	WORD	n/a	wordpools/wordpool.txt	THREAD	4	1	7	[0, 0, 0]	n/a	0	0	0	n/a	n/a	0.0	0	0	0	FR3	1	R1293P
890.864	0.753	890998	WORD_OFF	n/a	n/a	THREAD	4	0	7	[0, 0, 0]	n/a	0	0	0	n/a	n/a	0.0	0	0	0	FR3	1	R1293P
891.617	1.6	891751	WORD	n/a	wordpools/wordpool.txt	SHOE	5	1	7	[0, 0, 0]	n/a	0	0	0	n/a	n/a	0.0	0	0	0	FR3	1	R1293P
893.231	0.765	893365	WORD_OFF	n/a	n/a	SHOE	5	0	7	[0, 0, 0]	n/a	0	0	0	n/a	n/a	0.0	0	0	0	FR3	1	R1293P
893.996	1.6	894130	WORD	n/a	wordpools/wordpool.txt	FUR	6	0	7	[0, 0, 0]	n/a	0	0	0	n/a	n/a	0.0	0	0	0	FR3	1	R1293P
895.631	1.123	895765	WORD_OFF	n/a	n/a	FUR	6	0	7	[0, 0, 0]	n/a	0	0	0	n/a	n/a	0.0	0	0	0	FR3	1	R1293P
896.754	1.6	896888	WORD	n/a	wordpools/wordpool.txt	FRUIT	7	0	7	[0, 0, 0]	n/a	0	0	0	n/a	n/a	0.0	0	0	0	FR3	1	R1293P
898.383	0.897	898517	WORD_OFF	n/a	n/a	FRUIT	7	0	7	[0, 0, 0]	n/a	0	0	0	n/a	n/a	0.0	0	0	0	FR3	1	R1293P
899.28	1.6	899414	WORD	n/a	wordpools/wordpool.txt	SHARK	8	0	7	[0, 0, 0]	n/a	0	0	0	n/a	n/a	0.0	0	0	0	FR3	1	R1293P
900.915	1.125	901049	WORD_OFF	n/a	n/a	SHARK	8	0	7	[0, 0, 0]	n/a	0	0	0	n/a	n/a	0.0	0	0	0	FR3	1	R1293P
902.04	1.6	902174	WORD	n/a	wordpools/wordpool.txt	SHIRT	9	1	7	[0, 0, 0]	n/a	0	0	0	n/a	n/a	0.0	0	0	0	FR3	1	R1293P
903.666	0.906	903800	WORD_OFF	n/a	n/a	SHIRT	9	0	7	[0, 0, 0]	n/a	0	0	0	n/a	n/a	0.0	0	0	0	FR3	1	R1293P
904.572	1.6	904706	WORD	n/a	wordpools/wordpool.txt	WEED	10	1	7	[0, 0, 0]	n/a	0	0	0	n/a	n/a	0.0	0	0	0	FR3	1	R1293P
906.201	0.828	906335	WORD_OFF	n/a	n/a	WEED	10	0	7	[0, 0, 0]	n/a	0	0	0	n/a	n/a	0.0	0	0	0	FR3	1	R1293P
907.029	1.6	907162	WORD	n/a	wordpools/wordpool.txt	TEA	11	0	7	[0, 0, 0]	n/a	0	0	0	n/a	n/a	0.0	0	0	0	FR3	1	R1293P
908.65	0.001	908783	WORD_OFF	n/a	n/a	TEA	11	0	7	[0, 0, 0]	n/a	0	0	0	n/a	n/a	0.0	0	0	0	FR3	1	R1293P
908.651	0.001	908784	ENCODING_END	n/a	n/a	n/a	-999	0	7	[0, 0, 0]	n/a	0	0	0	n/a	n/a	0.0	0	0	0	FR3	1	R1293P
908.652	0.0	908785	DISTRACT_START	n/a	n/a	n/a	-999	0	7	[0, 0, 0]	n/a	0	0	0	n/a	n/a	0.0	0	0	0	FR3	1	R1293P
908.652	0.015	908785	START	n/a	n/a	n/a	-999	0	7	[-999, -999, -999]	n/a	0	0	0	n/a	n/a	0.0	0	0	0	FR3	1	R1293P
908.667	4.934	908800	PROB	4.91	n/a	n/a	-999	0	7	[1, 1, 5]	7	0	0	0	n/a	n/a	0.0	0	0	0	FR3	1	R1293P
913.601	3.368	913734	PROB	3.345	n/a	n/a	-999	0	7	[6, 2, 6]	14	0	0	0	n/a	n/a	0.0	0	0	0	FR3	1	R1293P
916.969	2.434	917102	PROB	2.41	n/a	n/a	-999	0	7	[2, 4, 4]	10	0	0	0	n/a	n/a	0.0	0	0	0	FR3	1	R1293P
919.403	2.266	919536	PROB	2.238	n/a	n/a	-999	0	7	[4, 7, 2]	13	0	0	0	n/a	n/a	0.0	0	0	0	FR3	1	R1293P
921.669	2.768	921802	PROB	2.734	n/a	n/a	-999	0	7	[7, 7, 6]	20	0	0	0	n/a	n/a	0.0	0	0	0	FR3	1	R1293P
924.437	3.217	924570	PROB	3.18	n/a	n/a	-999	0	7	[9, 7, 5]	21	0	0	0	n/a	n/a	0.0	0	0	0	FR3	1	R1293P
927.654	2.716	927786	PROB	2.716	n/a	n/a	-999	0	7	[6, 8, 3]	17	0	0	0	n/a	n/a	0.0	0	0	0	FR3	1	R1293P
930.37	0.019	930502	STOP	n/a	n/a	n/a	-999	0	7	[-999, -999, -999]	n/a	0	0	0	n/a	n/a	0.0	0	0	0	FR3	1	R1293P
930.389	0.646	930521	DISTRACT_END	n/a	n/a	n/a	-999	0	7	[0, 0, 0]	n/a	0	0	0	n/a	n/a	0.0	0	0	0	FR3	1	R1293P
931.035	1.6	931167	RETRIEVAL_ORIENT_START	n/a	n/a	n/a	-999	0	7	[0, 0, 0]	n/a	0	0	0	n/a	n/a	0.0	0	0	0	FR3	1	R1293P
932.588	0.001	932720	RETRIEVAL_ORIENT_END	n/a	n/a	n/a	-999	0	7	[0, 0, 0]	n/a	0	0	0	n/a	n/a	0.0	0	0	0	FR3	1	R1293P
932.589	2.92	932721	REC_START	n/a	n/a	n/a	-999	0	7	[0, 0, 0]	n/a	0	0	0	n/a	n/a	0.0	0	0	0	FR3	1	R1293P
935.509	0.555	935641	REC_WORD	2.92	n/a	HOLE	1	1	7	[0, 0, 0]	n/a	0	0	0	n/a	n/a	0.0	0	0	0	FR3	1	R1293P
936.064	0.584	936196	REC_WORD	3.475	n/a	PEAR	2	1	7	[0, 0, 0]	n/a	0	0	0	n/a	n/a	0.0	0	0	0	FR3	1	R1293P
936.648	0.525	936780	REC_WORD	4.059	n/a	THREAD	5	1	7	[0, 0, 0]	n/a	0	0	0	n/a	n/a	0.0	0	0	0	FR3	1	R1293P
937.173	0.465	937305	REC_WORD	4.584	n/a	MINT	-999	0	7	[0, 0, 0]	n/a	0	0	0	n/a	n/a	0.0	0	0	0	FR3	1	R1293P
937.638	0.72	937770	REC_WORD	5.049	n/a	SHOE	6	1	7	[0, 0, 0]	n/a	0	0	0	n/a	n/a	0.0	0	0	0	FR3	1	R1293P
938.358	0.77	938490	REC_WORD	5.769	n/a	SHIRT	10	1	7	[0, 0, 0]	n/a	0	0	0	n/a	n/a	0.0	0	0	0	FR3	1	R1293P
939.128	23.473	939260	REC_WORD	6.539	n/a	WEED	11	1	7	[0, 0, 0]	n/a	0	0	0	n/a	n/a	0.0	0	0	0	FR3	1	R1293P
962.601	0.001	962731	REC_END	n/a	n/a	n/a	-999	0	7	[0, 0, 0]	n/a	0	0	0	n/a	n/a	0.0	0	0	0	FR3	1	R1293P
962.602	0.017	962732	TRIAL_END	n/a	n/a	n/a	-999	0	7	[0, 0, 0]	n/a	0	0	0	n/a	n/a	0.0	0	0	0	FR3	1	R1293P
962.619	0.001	962749	TRIAL_START	n/a	n/a	n/a	-999	0	8	[0, 0, 0]	n/a	0	0	0	n/a	n/a	0.0	0	0	0	FR3	1	R1293P
962.62	0.0	962750	TRIAL	n/a	n/a	n/a	-999	0	8	[0, 0, 0]	n/a	0	0	0	n/a	n/a	0.0	0	0	0	FR3	1	R1293P
962.62	1.908	962750	WAITING_START	n/a	n/a	n/a	-999	0	8	[0, 0, 0]	n/a	0	0	0	n/a	n/a	0.0	0	0	0	FR3	1	R1293P
964.528	0.001	964658	WAITING_END	n/a	n/a	n/a	-999	0	8	[0, 0, 0]	n/a	0	0	0	n/a	n/a	0.0	0	0	0	FR3	1	R1293P
964.529	10.0	964659	COUNTDOWN_START	n/a	n/a	n/a	-999	0	8	[0, 0, 0]	n/a	0	0	0	n/a	n/a	0.0	0	0	0	FR3	1	R1293P
974.959	0.001	975089	COUNTDOWN_END	n/a	n/a	n/a	-999	0	8	[0, 0, 0]	n/a	0	0	0	n/a	n/a	0.0	0	0	0	FR3	1	R1293P
974.96	1.021	975090	ORIENT_START	n/a	n/a	n/a	-999	0	8	[0, 0, 0]	n/a	0	0	0	n/a	n/a	0.0	0	0	0	FR3	1	R1293P
975.981	0.0	976111	ORIENT_END	n/a	n/a	n/a	-999	0	8	[0, 0, 0]	n/a	0	0	0	n/a	n/a	0.0	0	0	0	FR3	1	R1293P
975.981	0.766	976111	ENCODING_START	n/a	n/a	n/a	-999	0	8	[0, 0, 0]	n/a	0	0	0	n/a	n/a	0.0	0	0	0	FR3	1	R1293P
976.747	1.6	976877	WORD	n/a	wordpools/wordpool.txt	GOLD	0	1	8	[0, 0, 0]	n/a	0	0	0	n/a	n/a	0.0	0	0	0	FR3	1	R1293P
978.364	0.806	978494	WORD_OFF	n/a	n/a	GOLD	0	0	8	[0, 0, 0]	n/a	0	0	0	n/a	n/a	0.0	0	0	0	FR3	1	R1293P
979.17	1.6	979300	WORD	n/a	wordpools/wordpool.txt	RAIN	1	0	8	[0, 0, 0]	n/a	0	0	0	n/a	n/a	0.0	0	0	0	FR3	1	R1293P
980.797	0.832	980927	WORD_OFF	n/a	n/a	RAIN	1	0	8	[0, 0, 0]	n/a	0	0	0	n/a	n/a	0.0	0	0	0	FR3	1	R1293P
981.629	1.6	981758	WORD	n/a	wordpools/wordpool.txt	MUD	2	0	8	[0, 0, 0]	n/a	0	0	0	n/a	n/a	0.0	0	0	0	FR3	1	R1293P
983.265	0.959	983394	WORD_OFF	n/a	n/a	MUD	2	0	8	[0, 0, 0]	n/a	0	0	0	n/a	n/a	0.0	0	0	0	FR3	1	R1293P
984.224	1.6	984353	WORD	n/a	wordpools/wordpool.txt	ROSE	3	1	8	[0, 0, 0]	n/a	0	0	0	n/a	n/a	0.0	0	0	0	FR3	1	R1293P
985.848	1.067	985977	WORD_OFF	n/a	n/a	ROSE	3	0	8	[0, 0, 0]	n/a	0	0	0	n/a	n/a	0.0	0	0	0	FR3	1	R1293P
986.915	1.6	987044	WORD	n/a	wordpools/wordpool.txt	MILK	4	1	8	[0, 0, 0]	n/a	0	0	0	n/a	n/a	0.0	0	0	0	FR3	1	R1293P
988.533	0.794	988662	WORD_OFF	n/a	n/a	MILK	4	0	8	[0, 0, 0]	n/a	0	0	0	n/a	n/a	0.0	0	0	0	FR3	1	R1293P
989.327	1.6	989456	WORD	n/a	wordpools/wordpool.txt	CANE	5	0	8	[0, 0, 0]	n/a	0	0	0	n/a	n/a	0.0	0	0	0	FR3	1	R1293P
990.95	1.044	991079	WORD_OFF	n/a	n/a	CANE	5	0	8	[0, 0, 0]	n/a	0	0	0	n/a	n/a	0.0	0	0	0	FR3	1	R1293P
991.994	1.6	992123	WORD	n/a	wordpools/wordpool.txt	SPARK	6	0	8	[0, 0, 0]	n/a	0	0	0	n/a	n/a	0.0	0	0	0	FR3	1	R1293P
993.616	0.839	993745	WORD_OFF	n/a	n/a	SPARK	6	0	8	[0, 0, 0]	n/a	0	0	0	n/a	n/a	0.0	0	0	0	FR3	1	R1293P
994.455	1.6	994584	WORD	n/a	wordpools/wordpool.txt	LAWN	7	0	8	[0, 0, 0]	n/a	0	0	0	n/a	n/a	0.0	0	0	0	FR3	1	R1293P
996.084	1.08	996213	WORD_OFF	n/a	n/a	LAWN	7	0	8	[0, 0, 0]	n/a	0	0	0	n/a	n/a	0.0	0	0	0	FR3	1	R1293P
997.164	1.6	997293	WORD	n/a	wordpools/wordpool.txt	SKUNK	8	1	8	[0, 0, 0]	n/a	0	0	0	n/a	n/a	0.0	0	0	0	FR3	1	R1293P
998.8	1.008	998929	WORD_OFF	n/a	n/a	SKUNK	8	0	8	[0, 0, 0]	n/a	0	0	0	n/a	n/a	0.0	0	0	0	FR3	1	R1293P
999.808	1.6	999937	WORD	n/a	wordpools/wordpool.txt	STORM	9	1	8	[0, 0, 0]	n/a	0	0	0	n/a	n/a	0.0	0	0	0	FR3	1	R1293P
1001.435	0.865	1001563	WORD_OFF	n/a	n/a	STORM	9	0	8	[0, 0, 0]	n/a	0	0	0	n/a	n/a	0.0	0	0	0	FR3	1	R1293P
1002.3	1.6	1002428	WORD	n/a	wordpools/wordpool.txt	BIRD	10	1	8	[0, 0, 0]	n/a	0	0	0	n/a	n/a	0.0	0	0	0	FR3	1	R1293P
1003.935	0.952	1004063	WORD_OFF	n/a	n/a	BIRD	10	0	8	[0, 0, 0]	n/a	0	0	0	n/a	n/a	0.0	0	0	0	FR3	1	R1293P
1004.887	1.6	1005015	WORD	n/a	wordpools/wordpool.txt	WOOD	11	0	8	[0, 0, 0]	n/a	0	0	0	n/a	n/a	0.0	0	0	0	FR3	1	R1293P
1006.52	0.001	1006648	WORD_OFF	n/a	n/a	WOOD	11	0	8	[0, 0, 0]	n/a	0	0	0	n/a	n/a	0.0	0	0	0	FR3	1	R1293P
1006.521	0.0	1006649	ENCODING_END	n/a	n/a	n/a	-999	0	8	[0, 0, 0]	n/a	0	0	0	n/a	n/a	0.0	0	0	0	FR3	1	R1293P
1006.521	0.0	1006649	DISTRACT_START	n/a	n/a	n/a	-999	0	8	[0, 0, 0]	n/a	0	0	0	n/a	n/a	0.0	0	0	0	FR3	1	R1293P
1006.521	0.015	1006649	START	n/a	n/a	n/a	-999	0	8	[-999, -999, -999]	n/a	0	0	0	n/a	n/a	0.0	0	0	0	FR3	1	R1293P
1006.536	3.868	1006664	PROB	3.833	n/a	n/a	-999	0	8	[8, 1, 7]	16	0	0	0	n/a	n/a	0.0	0	0	0	FR3	1	R1293P
1010.404	2.15	1010532	PROB	2.125	n/a	n/a	-999	0	8	[4, 8, 9]	21	0	0	0	n/a	n/a	0.0	0	0	0	FR3	1	R1293P
1012.554	2.349	1012682	PROB	2.317	n/a	n/a	-999	0	8	[7, 2, 8]	17	0	0	0	n/a	n/a	0.0	0	0	0	FR3	1	R1293P
1014.903	2.652	1015031	PROB	2.618	n/a	n/a	-999	0	8	[4, 2, 1]	7	0	0	0	n/a	n/a	0.0	0	0	0	FR3	1	R1293P
1017.555	2.7	1017683	PROB	2.669	n/a	n/a	-999	0	8	[9, 3, 9]	21	0	0	0	n/a	n/a	0.0	0	0	0	FR3	1	R1293P
1020.255	2.301	1020382	PROB	2.265	n/a	n/a	-999	0	8	[5, 5, 6]	16	0	0	0	n/a	n/a	0.0	0	0	0	FR3	1	R1293P
1022.556	3.467	1022683	PROB	3.436	n/a	n/a	-999	0	8	[5, 9, 8]	22	0	0	0	n/a	n/a	0.0	0	0	0	FR3	1	R1293P
1026.023	2.234	1026150	PROB	2.234	n/a	n/a	-999	0	8	[3, 9, 9]	21	0	0	0	n/a	n/a	0.0	0	0	0	FR3	1	R1293P
1028.257	0.017	1028384	STOP	n/a	n/a	n/a	-999	0	8	[-999, -999, -999]	n/a	0	0	0	n/a	n/a	0.0	0	0	0	FR3	1	R1293P
1028.274	0.567	1028401	DISTRACT_END	n/a	n/a	n/a	-999	0	8	[0, 0, 0]	n/a	0	0	0	n/a	n/a	0.0	0	0	0	FR3	1	R1293P
1028.841	1.6	1028968	RETRIEVAL_ORIENT_START	n/a	n/a	n/a	-999	0	8	[0, 0, 0]	n/a	0	0	0	n/a	n/a	0.0	0	0	0	FR3	1	R1293P
1030.524	0.001	1030651	RETRIEVAL_ORIENT_END	n/a	n/a	n/a	-999	0	8	[0, 0, 0]	n/a	0	0	0	n/a	n/a	0.0	0	0	0	FR3	1	R1293P
1030.525	2.479	1030652	REC_START	n/a	n/a	n/a	-999	0	8	[0, 0, 0]	n/a	0	0	0	n/a	n/a	0.0	0	0	0	FR3	1	R1293P
1033.004	2.981	1033131	REC_WORD_VV	2.479	n/a	<>	-999	0	8	[0, 0, 0]	n/a	0	0	0	n/a	n/a	0.0	0	0	0	FR3	1	R1293P
1035.985	0.63	1036112	REC_WORD	5.46	n/a	GOLD	1	1	8	[0, 0, 0]	n/a	0	0	0	n/a	n/a	0.0	0	0	0	FR3	1	R1293P
1036.615	0.675	1036742	REC_WORD_VV	6.09	n/a	<>	-999	0	8	[0, 0, 0]	n/a	0	0	0	n/a	n/a	0.0	0	0	0	FR3	1	R1293P
1037.29	0.62	1037417	REC_WORD	6.765	n/a	GOLD	1	1	8	[0, 0, 0]	n/a	0	0	0	n/a	n/a	0.0	0	0	0	FR3	1	R1293P
1037.91	0.535	1038036	REC_WORD	7.385	n/a	BRANCH	-999	0	8	[0, 0, 0]	n/a	0	0	0	n/a	n/a	0.0	0	0	0	FR3	1	R1293P
1038.445	0.43	1038571	REC_WORD	7.92	n/a	SHOWER	-999	0	8	[0, 0, 0]	n/a	0	0	0	n/a	n/a	0.0	0	0	0	FR3	1	R1293P
1038.875	0.62	1039001	REC_WORD	8.35	n/a	STORM	10	1	8	[0, 0, 0]	n/a	0	0	0	n/a	n/a	0.0	0	0	0	FR3	1	R1293P
1039.495	1.89	1039621	REC_WORD	8.97	n/a	SKUNK	9	1	8	[0, 0, 0]	n/a	0	0	0	n/a	n/a	0.0	0	0	0	FR3	1	R1293P
1041.385	0.885	1041511	REC_WORD	10.86	n/a	BEE	-999	0	8	[0, 0, 0]	n/a	0	0	0	n/a	n/a	0.0	0	0	0	FR3	1	R1293P
1042.27	0.615	1042396	REC_WORD	11.745	n/a	BIRD	11	1	8	[0, 0, 0]	n/a	0	0	0	n/a	n/a	0.0	0	0	0	FR3	1	R1293P
1042.885	3.7	1043011	REC_WORD	12.36	n/a	FOREST	-999	0	8	[0, 0, 0]	n/a	0	0	0	n/a	n/a	0.0	0	0	0	FR3	1	R1293P
1046.585	0.9	1046711	REC_WORD	16.06	n/a	ROSE	4	1	8	[0, 0, 0]	n/a	0	0	0	n/a	n/a	0.0	0	0	0	FR3	1	R1293P
1047.485	1.45	1047611	REC_WORD	16.96	n/a	ROSE	4	1	8	[0, 0, 0]	n/a	0	0	0	n/a	n/a	0.0	0	0	0	FR3	1	R1293P
1048.935	2.765	1049061	REC_WORD_VV	18.41	n/a	<>	-999	0	8	[0, 0, 0]	n/a	0	0	0	n/a	n/a	0.0	0	0	0	FR3	1	R1293P
1051.7	8.838	1051826	REC_WORD	21.175	n/a	MILK	5	1	8	[0, 0, 0]	n/a	0	0	0	n/a	n/a	0.0	0	0	0	FR3	1	R1293P
1060.538	0.001	1060663	REC_END	n/a	n/a	n/a	-999	0	8	[0, 0, 0]	n/a	0	0	0	n/a	n/a	0.0	0	0	0	FR3	1	R1293P
1060.539	0.015	1060664	TRIAL_END	n/a	n/a	n/a	-999	0	8	[0, 0, 0]	n/a	0	0	0	n/a	n/a	0.0	0	0	0	FR3	1	R1293P
1060.554	0.0	1060679	TRIAL_START	n/a	n/a	n/a	-999	0	9	[0, 0, 0]	n/a	0	0	0	n/a	n/a	0.0	0	0	0	FR3	1	R1293P
1060.554	0.001	1060679	TRIAL	n/a	n/a	n/a	-999	0	9	[0, 0, 0]	n/a	0	0	0	n/a	n/a	0.0	0	0	0	FR3	1	R1293P
1060.555	1.509	1060680	WAITING_START	n/a	n/a	n/a	-999	0	9	[0, 0, 0]	n/a	0	0	0	n/a	n/a	0.0	0	0	0	FR3	1	R1293P
1062.064	10.0	1062189	COUNTDOWN_START	n/a	n/a	n/a	-999	0	9	[0, 0, 0]	n/a	0	0	0	n/a	n/a	0.0	0	0	0	FR3	1	R1293P
1062.064	10.43	1062189	WAITING_END	n/a	n/a	n/a	-999	0	9	[0, 0, 0]	n/a	0	0	0	n/a	n/a	0.0	0	0	0	FR3	1	R1293P
1072.494	0.001	1072619	COUNTDOWN_END	n/a	n/a	n/a	-999	0	9	[0, 0, 0]	n/a	0	0	0	n/a	n/a	0.0	0	0	0	FR3	1	R1293P
1072.495	1.054	1072620	ORIENT_START	n/a	n/a	n/a	-999	0	9	[0, 0, 0]	n/a	0	0	0	n/a	n/a	0.0	0	0	0	FR3	1	R1293P
1073.549	0.001	1073674	ORIENT_END	n/a	n/a	n/a	-999	0	9	[0, 0, 0]	n/a	0	0	0	n/a	n/a	0.0	0	0	0	FR3	1	R1293P
1073.55	0.867	1073675	ENCODING_START	n/a	n/a	n/a	-999	0	9	[0, 0, 0]	n/a	0	0	0	n/a	n/a	0.0	0	0	0	FR3	1	R1293P
1074.417	1.6	1074542	WORD	n/a	wordpools/wordpool.txt	ROAD	0	1	9	[0, 0, 0]	n/a	0	0	0	n/a	n/a	0.0	0	0	0	FR3	1	R1293P
1076.049	0.885	1076173	WORD_OFF	n/a	n/a	ROAD	0	0	9	[0, 0, 0]	n/a	0	0	0	n/a	n/a	0.0	0	0	0	FR3	1	R1293P
1076.934	1.6	1077058	WORD	n/a	wordpools/wordpool.txt	LAKE	1	1	9	[0, 0, 0]	n/a	0	0	0	n/a	n/a	0.0	0	0	0	FR3	1	R1293P
1078.565	1.02	1078689	WORD_OFF	n/a	n/a	LAKE	1	0	9	[0, 0, 0]	n/a	0	0	0	n/a	n/a	0.0	0	0	0	FR3	1	R1293P
1079.585	1.6	1079709	WORD	n/a	wordpools/wordpool.txt	BENCH	2	1	9	[0, 0, 0]	n/a	0	0	0	n/a	n/a	0.0	0	0	0	FR3	1	R1293P
1081.217	0.756	1081341	WORD_OFF	n/a	n/a	BENCH	2	0	9	[0, 0, 0]	n/a	0	0	0	n/a	n/a	0.0	0	0	0	FR3	1	R1293P
1081.973	1.6	1082097	WORD	n/a	wordpools/wordpool.txt	LEG	3	0	9	[0, 0, 0]	n/a	0	0	0	n/a	n/a	0.0	0	0	0	FR3	1	R1293P
1083.6	0.772	1083724	WORD_OFF	n/a	n/a	LEG	3	0	9	[0, 0, 0]	n/a	0	0	0	n/a	n/a	0.0	0	0	0	FR3	1	R1293P
1084.372	1.6	1084496	WORD	n/a	wordpools/wordpool.txt	CAR	4	0	9	[0, 0, 0]	n/a	0	0	0	n/a	n/a	0.0	0	0	0	FR3	1	R1293P
1086.001	1.041	1086125	WORD_OFF	n/a	n/a	CAR	4	0	9	[0, 0, 0]	n/a	0	0	0	n/a	n/a	0.0	0	0	0	FR3	1	R1293P
1087.042	1.6	1087166	WORD	n/a	wordpools/wordpool.txt	SPEAR	5	1	9	[0, 0, 0]	n/a	0	0	0	n/a	n/a	0.0	0	0	0	FR3	1	R1293P
1088.668	1.064	1088792	WORD_OFF	n/a	n/a	SPEAR	5	0	9	[0, 0, 0]	n/a	0	0	0	n/a	n/a	0.0	0	0	0	FR3	1	R1293P
1089.732	1.6	1089856	WORD	n/a	wordpools/wordpool.txt	DOCK	6	0	9	[0, 0, 0]	n/a	0	0	0	n/a	n/a	0.0	0	0	0	FR3	1	R1293P
1091.369	1.101	1091493	WORD_OFF	n/a	n/a	DOCK	6	0	9	[0, 0, 0]	n/a	0	0	0	n/a	n/a	0.0	0	0	0	FR3	1	R1293P
1092.47	1.6	1092594	WORD	n/a	wordpools/wordpool.txt	HAWK	7	0	9	[0, 0, 0]	n/a	0	0	0	n/a	n/a	0.0	0	0	0	FR3	1	R1293P
1094.103	0.891	1094226	WORD_OFF	n/a	n/a	HAWK	7	0	9	[0, 0, 0]	n/a	0	0	0	n/a	n/a	0.0	0	0	0	FR3	1	R1293P
1094.994	1.6	1095117	WORD	n/a	wordpools/wordpool.txt	JET	8	0	9	[0, 0, 0]	n/a	0	0	0	n/a	n/a	0.0	0	0	0	FR3	1	R1293P
1096.619	0.775	1096742	WORD_OFF	n/a	n/a	JET	8	0	9	[0, 0, 0]	n/a	0	0	0	n/a	n/a	0.0	0	0	0	FR3	1	R1293P
1097.394	1.6	1097517	WORD	n/a	wordpools/wordpool.txt	POLE	9	0	9	[0, 0, 0]	n/a	0	0	0	n/a	n/a	0.0	0	0	0	FR3	1	R1293P
1099.02	0.858	1099143	WORD_OFF	n/a	n/a	POLE	9	0	9	[0, 0, 0]	n/a	0	0	0	n/a	n/a	0.0	0	0	0	FR3	1	R1293P
1099.878	1.6	1100001	WORD	n/a	wordpools/wordpool.txt	GRASS	10	1	9	[0, 0, 0]	n/a	0	0	0	n/a	n/a	0.0	0	0	0	FR3	1	R1293P
1101.504	0.757	1101627	WORD_OFF	n/a	n/a	GRASS	10	0	9	[0, 0, 0]	n/a	0	0	0	n/a	n/a	0.0	0	0	0	FR3	1	R1293P
1102.261	1.6	1102384	WORD	n/a	wordpools/wordpool.txt	OAK	11	0	9	[0, 0, 0]	n/a	0	0	0	n/a	n/a	0.0	0	0	0	FR3	1	R1293P
1103.887	0.001	1104010	WORD_OFF	n/a	n/a	OAK	11	0	9	[0, 0, 0]	n/a	0	0	0	n/a	n/a	0.0	0	0	0	FR3	1	R1293P
1103.888	0.0	1104011	ENCODING_END	n/a	n/a	n/a	-999	0	9	[0, 0, 0]	n/a	0	0	0	n/a	n/a	0.0	0	0	0	FR3	1	R1293P
1103.888	0.001	1104011	DISTRACT_START	n/a	n/a	n/a	-999	0	9	[0, 0, 0]	n/a	0	0	0	n/a	n/a	0.0	0	0	0	FR3	1	R1293P
1103.889	0.014	1104012	START	n/a	n/a	n/a	-999	0	9	[-999, -999, -999]	n/a	0	0	0	n/a	n/a	0.0	0	0	0	FR3	1	R1293P
1103.903	3.235	1104026	PROB	3.21	n/a	n/a	-999	0	9	[6, 5, 3]	14	0	0	0	n/a	n/a	0.0	0	0	0	FR3	1	R1293P
1107.138	3.251	1107261	PROB	3.215	n/a	n/a	-999	0	9	[6, 4, 4]	14	0	0	0	n/a	n/a	0.0	0	0	0	FR3	1	R1293P
1110.389	2.167	1110512	PROB	2.133	n/a	n/a	-999	0	9	[2, 5, 7]	14	0	0	0	n/a	n/a	0.0	0	0	0	FR3	1	R1293P
1112.556	2.717	1112678	PROB	2.685	n/a	n/a	-999	0	9	[8, 1, 9]	18	0	0	0	n/a	n/a	0.0	0	0	0	FR3	1	R1293P
1115.273	2.167	1115395	PROB	2.144	n/a	n/a	-999	0	9	[1, 8, 3]	12	0	0	0	n/a	n/a	0.0	0	0	0	FR3	1	R1293P
1117.44	2.101	1117562	PROB	2.073	n/a	n/a	-999	0	9	[7, 3, 6]	16	0	0	0	n/a	n/a	0.0	0	0	0	FR3	1	R1293P
1119.541	2.934	1119663	PROB	2.9	n/a	n/a	-999	0	9	[1, 6, 2]	9	0	0	0	n/a	n/a	0.0	0	0	0	FR3	1	R1293P
1122.475	2.221	1122597	PROB	2.221	n/a	n/a	-999	0	9	[2, 3, 2]	7	0	0	0	n/a	n/a	0.0	0	0	0	FR3	1	R1293P
1124.696	0.012	1124818	STOP	n/a	n/a	n/a	-999	0	9	[-999, -999, -999]	n/a	0	0	0	n/a	n/a	0.0	0	0	0	FR3	1	R1293P
1124.708	0.511	1124830	DISTRACT_END	n/a	n/a	n/a	-999	0	9	[0, 0, 0]	n/a	0	0	0	n/a	n/a	0.0	0	0	0	FR3	1	R1293P
1125.219	1.6	1125341	RETRIEVAL_ORIENT_START	n/a	n/a	n/a	-999	0	9	[0, 0, 0]	n/a	0	0	0	n/a	n/a	0.0	0	0	0	FR3	1	R1293P
1126.775	0.0	1126897	RETRIEVAL_ORIENT_END	n/a	n/a	n/a	-999	0	9	[0, 0, 0]	n/a	0	0	0	n/a	n/a	0.0	0	0	0	FR3	1	R1293P
1126.775	2.704	1126897	REC_START	n/a	n/a	n/a	-999	0	9	[0, 0, 0]	n/a	0	0	0	n/a	n/a	0.0	0	0	0	FR3	1	R1293P
1129.479	0.525	1129601	REC_WORD	2.704	n/a	ROAD	1	1	9	[0, 0, 0]	n/a	0	0	0	n/a	n/a	0.0	0	0	0	FR3	1	R1293P
1130.004	0.665	1130126	REC_WORD	3.229	n/a	LAKE	2	1	9	[0, 0, 0]	n/a	0	0	0	n/a	n/a	0.0	0	0	0	FR3	1	R1293P
1130.669	0.6	1130791	REC_WORD	3.894	n/a	BENCH	3	1	9	[0, 0, 0]	n/a	0	0	0	n/a	n/a	0.0	0	0	0	FR3	1	R1293P
1131.269	1.17	1131390	REC_WORD	4.494	n/a	GRASS	11	1	9	[0, 0, 0]	n/a	0	0	0	n/a	n/a	0.0	0	0	0	FR3	1	R1293P
1132.439	12.79	1132560	REC_WORD	5.664	n/a	SPEAR	6	1	9	[0, 0, 0]	n/a	0	0	0	n/a	n/a	0.0	0	0	0	FR3	1	R1293P
1145.229	5.2	1145350	REC_WORD_VV	18.454	n/a	<>	-999	0	9	[0, 0, 0]	n/a	0	0	0	n/a	n/a	0.0	0	0	0	FR3	1	R1293P
1150.429	1.0	1150549	REC_WORD_VV	23.654	n/a	<>	-999	0	9	[0, 0, 0]	n/a	0	0	0	n/a	n/a	0.0	0	0	0	FR3	1	R1293P
1151.429	2.055	1151549	REC_WORD_VV	24.654	n/a	<>	-999	0	9	[0, 0, 0]	n/a	0	0	0	n/a	n/a	0.0	0	0	0	FR3	1	R1293P
1153.484	1.0	1153604	REC_WORD_VV	26.709	n/a	<>	-999	0	9	[0, 0, 0]	n/a	0	0	0	n/a	n/a	0.0	0	0	0	FR3	1	R1293P
1154.484	2.303	1154604	REC_WORD_VV	27.709	n/a	<>	-999	0	9	[0, 0, 0]	n/a	0	0	0	n/a	n/a	0.0	0	0	0	FR3	1	R1293P
1156.787	0.001	1156907	REC_END	n/a	n/a	n/a	-999	0	9	[0, 0, 0]	n/a	0	0	0	n/a	n/a	0.0	0	0	0	FR3	1	R1293P
1156.788	0.014	1156908	TRIAL_END	n/a	n/a	n/a	-999	0	9	[0, 0, 0]	n/a	0	0	0	n/a	n/a	0.0	0	0	0	FR3	1	R1293P
1156.802	0.0	1156922	TRIAL	n/a	n/a	n/a	-999	0	10	[0, 0, 0]	n/a	0	0	0	n/a	n/a	0.0	0	0	0	FR3	1	R1293P
1156.802	0.001	1156922	TRIAL_START	n/a	n/a	n/a	-999	0	10	[0, 0, 0]	n/a	0	0	0	n/a	n/a	0.0	0	0	0	FR3	1	R1293P
1156.803	0.0	1156923	WAITING_START	n/a	n/a	n/a	-999	0	10	[0, 0, 0]	n/a	0	0	0	n/a	n/a	0.0	0	0	0	FR3	1	R1293P
