onset	duration	sample	trial_type	response_time	stim_file	item_name	serialpos	recalled	list	test	answer	stimulation	stim_list	stim_duration	anode_label	cathode_label	amplitude	pulse_freq	n_pulses	pulse_width	experiment	session	subject
0.0	0.0	242177	INSTRUCT_START	n/a	n/a	n/a	-999	0	-999	[0, 0, 0]	n/a	0	0	0	n/a	n/a	0.0	0	0	0	FR3	0	R1236J
0.0	10.944	242177	INSTRUCT_END	n/a	n/a	n/a	-999	0	-999	[0, 0, 0]	n/a	0	0	0	n/a	n/a	0.0	0	0	0	FR3	0	R1236J
10.944	0.0	253121	SESS_START	n/a	n/a	n/a	-999	0	-999	[0, 0, 0]	n/a	0	0	0	n/a	n/a	0.0	0	0	0	FR3	0	R1236J
10.944	13.501	253121	MIC_TEST	n/a	n/a	n/a	-999	0	-999	[0, 0, 0]	n/a	0	0	0	n/a	n/a	0.0	0	0	0	FR3	0	R1236J
24.445	2.343	266622	PRACTICE_TRIAL	n/a	n/a	n/a	-999	0	-1	[0, 0, 0]	n/a	0	0	0	n/a	n/a	0.0	0	0	0	FR3	0	R1236J
26.788	10.0	268965	COUNTDOWN_START	n/a	n/a	n/a	-999	0	-1	[0, 0, 0]	n/a	0	0	0	n/a	n/a	0.0	0	0	0	FR3	0	R1236J
37.216	0.006	279393	COUNTDOWN_END	n/a	n/a	n/a	-999	0	-1	[0, 0, 0]	n/a	0	0	0	n/a	n/a	0.0	0	0	0	FR3	0	R1236J
37.222	1.6	279399	PRACTICE_ORIENT	n/a	n/a	n/a	-999	0	-1	[0, 0, 0]	n/a	0	0	0	n/a	n/a	0.0	0	0	0	FR3	0	R1236J
38.84	1.9	281017	PRACTICE_ORIENT_OFF	n/a	n/a	n/a	-999	0	-1	[0, 0, 0]	n/a	0	0	0	n/a	n/a	0.0	0	0	0	FR3	0	R1236J
40.74	1.6	282917	PRACTICE_WORD	n/a	n/a	IRON	1	0	-1	[0, 0, 0]	n/a	0	0	0	n/a	n/a	0.0	0	0	0	FR3	0	R1236J
42.357	0.799	284534	PRACTICE_WORD_OFF	n/a	n/a	IRON	-999	0	-1	[0, 0, 0]	n/a	0	0	0	n/a	n/a	0.0	0	0	0	FR3	0	R1236J
43.156	1.6	285333	PRACTICE_WORD	n/a	n/a	ATTIC	2	0	-1	[0, 0, 0]	n/a	0	0	0	n/a	n/a	0.0	0	0	0	FR3	0	R1236J
44.773	0.984	286950	PRACTICE_WORD_OFF	n/a	n/a	ATTIC	-999	0	-1	[0, 0, 0]	n/a	0	0	0	n/a	n/a	0.0	0	0	0	FR3	0	R1236J
45.757	1.6	287934	PRACTICE_WORD	n/a	n/a	RHINO	3	0	-1	[0, 0, 0]	n/a	0	0	0	n/a	n/a	0.0	0	0	0	FR3	0	R1236J
47.374	0.95	289551	PRACTICE_WORD_OFF	n/a	n/a	RHINO	-999	0	-1	[0, 0, 0]	n/a	0	0	0	n/a	n/a	0.0	0	0	0	FR3	0	R1236J
48.324	1.6	290501	PRACTICE_WORD	n/a	n/a	CAMEL	4	0	-1	[0, 0, 0]	n/a	0	0	0	n/a	n/a	0.0	0	0	0	FR3	0	R1236J
49.94	0.984	292117	PRACTICE_WORD_OFF	n/a	n/a	CAMEL	-999	0	-1	[0, 0, 0]	n/a	0	0	0	n/a	n/a	0.0	0	0	0	FR3	0	R1236J
50.924	1.6	293101	PRACTICE_WORD	n/a	n/a	WATCH	5	0	-1	[0, 0, 0]	n/a	0	0	0	n/a	n/a	0.0	0	0	0	FR3	0	R1236J
52.541	0.917	294718	PRACTICE_WORD_OFF	n/a	n/a	WATCH	-999	0	-1	[0, 0, 0]	n/a	0	0	0	n/a	n/a	0.0	0	0	0	FR3	0	R1236J
53.458	1.6	295635	PRACTICE_WORD	n/a	n/a	RING	6	0	-1	[0, 0, 0]	n/a	0	0	0	n/a	n/a	0.0	0	0	0	FR3	0	R1236J
55.074	0.833	297251	PRACTICE_WORD_OFF	n/a	n/a	RING	-999	0	-1	[0, 0, 0]	n/a	0	0	0	n/a	n/a	0.0	0	0	0	FR3	0	R1236J
55.907	1.6	298084	PRACTICE_WORD	n/a	n/a	COTTON	7	0	-1	[0, 0, 0]	n/a	0	0	0	n/a	n/a	0.0	0	0	0	FR3	0	R1236J
57.508	0.801	299685	PRACTICE_WORD_OFF	n/a	n/a	COTTON	-999	0	-1	[0, 0, 0]	n/a	0	0	0	n/a	n/a	0.0	0	0	0	FR3	0	R1236J
58.309	1.6	300486	PRACTICE_WORD	n/a	n/a	WAGON	8	0	-1	[0, 0, 0]	n/a	0	0	0	n/a	n/a	0.0	0	0	0	FR3	0	R1236J
59.924	0.984	302101	PRACTICE_WORD_OFF	n/a	n/a	WAGON	-999	0	-1	[0, 0, 0]	n/a	0	0	0	n/a	n/a	0.0	0	0	0	FR3	0	R1236J
60.908	1.6	303085	PRACTICE_WORD	n/a	n/a	CHEST	9	0	-1	[0, 0, 0]	n/a	0	0	0	n/a	n/a	0.0	0	0	0	FR3	0	R1236J
62.526	1.0	304703	PRACTICE_WORD_OFF	n/a	n/a	CHEST	-999	0	-1	[0, 0, 0]	n/a	0	0	0	n/a	n/a	0.0	0	0	0	FR3	0	R1236J
63.526	1.6	305703	PRACTICE_WORD	n/a	n/a	TONGUE	10	0	-1	[0, 0, 0]	n/a	0	0	0	n/a	n/a	0.0	0	0	0	FR3	0	R1236J
65.142	0.883	307319	PRACTICE_WORD_OFF	n/a	n/a	TONGUE	-999	0	-1	[0, 0, 0]	n/a	0	0	0	n/a	n/a	0.0	0	0	0	FR3	0	R1236J
66.025	1.6	308202	PRACTICE_WORD	n/a	n/a	FLOOD	11	0	-1	[0, 0, 0]	n/a	0	0	0	n/a	n/a	0.0	0	0	0	FR3	0	R1236J
67.643	0.967	309820	PRACTICE_WORD_OFF	n/a	n/a	FLOOD	-999	0	-1	[0, 0, 0]	n/a	0	0	0	n/a	n/a	0.0	0	0	0	FR3	0	R1236J
68.61	1.6	310787	PRACTICE_WORD	n/a	n/a	BEAM	12	0	-1	[0, 0, 0]	n/a	0	0	0	n/a	n/a	0.0	0	0	0	FR3	0	R1236J
70.227	0.0	312404	PRACTICE_WORD_OFF	n/a	n/a	BEAM	-999	0	-1	[0, 0, 0]	n/a	0	0	0	n/a	n/a	0.0	0	0	0	FR3	0	R1236J
70.227	0.001	312404	DISTRACT_START	n/a	n/a	n/a	-999	0	-1	[0, 0, 0]	n/a	0	0	0	n/a	n/a	0.0	0	0	0	FR3	0	R1236J
70.228	0.016	312405	START	n/a	n/a	n/a	-999	0	-1	[-999, -999, -999]	n/a	0	0	0	n/a	n/a	0.0	0	0	0	FR3	0	R1236J
70.244	3.749	312421	PROB	3.724	n/a	n/a	-999	0	-1	[6, 8, 3]	17	0	0	0	n/a	n/a	0.0	0	0	0	FR3	0	R1236J
73.993	5.034	316170	PROB	4.998	n/a	n/a	-999	0	-1	[4, 8, 9]	21	0	0	0	n/a	n/a	0.0	0	0	0	FR3	0	R1236J
79.027	3.501	321204	PROB	3.47	n/a	n/a	-999	0	-1	[4, 8, 4]	16	0	0	0	n/a	n/a	0.0	0	0	0	FR3	0	R1236J
82.528	3.483	324705	PROB	3.455	n/a	n/a	-999	0	-1	[4, 2, 7]	13	0	0	0	n/a	n/a	0.0	0	0	0	FR3	0	R1236J
86.011	3.835	328188	PROB	3.798	n/a	n/a	-999	0	-1	[8, 8, 5]	21	0	0	0	n/a	n/a	0.0	0	0	0	FR3	0	R1236J
89.846	3.643	332023	PROB	3.643	n/a	n/a	-999	0	-1	[2, 4, 6]	12	0	0	0	n/a	n/a	0.0	0	0	0	FR3	0	R1236J
93.489	0.008	335666	STOP	n/a	n/a	n/a	-999	0	-1	[-999, -999, -999]	n/a	0	0	0	n/a	n/a	0.0	0	0	0	FR3	0	R1236J
93.497	0.666	335674	DISTRACT_END	n/a	n/a	n/a	-999	0	-1	[0, 0, 0]	n/a	0	0	0	n/a	n/a	0.0	0	0	0	FR3	0	R1236J
94.163	0.5	336340	RETRIEVAL_ORIENT	n/a	n/a	n/a	-999	0	-1	[0, 0, 0]	n/a	0	0	0	n/a	n/a	0.0	0	0	0	FR3	0	R1236J
94.682	30.009	336859	PRACTICE_REC_START	n/a	n/a	n/a	-999	0	-1	[0, 0, 0]	n/a	0	0	0	n/a	n/a	0.0	0	0	0	FR3	0	R1236J
124.691	6.76	366869	PRACTICE_REC_END	n/a	n/a	n/a	-999	0	-1	[0, 0, 0]	n/a	0	0	0	n/a	n/a	0.0	0	0	0	FR3	0	R1236J
131.451	0.5	373629	TRIAL	n/a	n/a	n/a	-999	0	1	[0, 0, 0]	n/a	0	0	0	n/a	n/a	0.0	0	0	0	FR3	0	R1236J
131.951	10.0	374129	COUNTDOWN_START	n/a	n/a	n/a	-999	0	1	[0, 0, 0]	n/a	0	0	0	n/a	n/a	0.0	0	0	0	FR3	0	R1236J
142.379	0.007	384557	COUNTDOWN_END	n/a	n/a	n/a	-999	0	1	[0, 0, 0]	n/a	0	0	0	n/a	n/a	0.0	0	0	0	FR3	0	R1236J
142.386	1.6	384564	ORIENT	n/a	n/a	n/a	-999	0	1	[0, 0, 0]	n/a	0	0	0	n/a	n/a	0.0	0	0	0	FR3	0	R1236J
144.002	2.167	386180	ORIENT_OFF	n/a	n/a	n/a	-999	0	1	[0, 0, 0]	n/a	0	0	0	n/a	n/a	0.0	0	0	0	FR3	0	R1236J
146.169	1.6	388347	WORD	n/a	wordpools/wordpool.txt	WAVE	1	1	1	[0, 0, 0]	n/a	0	0	0	n/a	n/a	0.0	0	0	0	FR3	0	R1236J
147.787	0.817	389965	WORD_OFF	n/a	n/a	WAVE	1	0	1	[0, 0, 0]	n/a	0	0	0	n/a	n/a	0.0	0	0	0	FR3	0	R1236J
148.604	1.6	390782	WORD	n/a	wordpools/wordpool.txt	WOLF	2	0	1	[0, 0, 0]	n/a	0	0	0	n/a	n/a	0.0	0	0	0	FR3	0	R1236J
150.221	1.0	392399	WORD_OFF	n/a	n/a	WOLF	2	0	1	[0, 0, 0]	n/a	0	0	0	n/a	n/a	0.0	0	0	0	FR3	0	R1236J
151.221	1.6	393399	WORD	n/a	wordpools/wordpool.txt	POOL	3	1	1	[0, 0, 0]	n/a	0	0	0	n/a	n/a	0.0	0	0	0	FR3	0	R1236J
152.838	0.85	395016	WORD_OFF	n/a	n/a	POOL	3	0	1	[0, 0, 0]	n/a	0	0	0	n/a	n/a	0.0	0	0	0	FR3	0	R1236J
153.688	1.6	395866	WORD	n/a	wordpools/wordpool.txt	TANK	4	0	1	[0, 0, 0]	n/a	0	0	0	n/a	n/a	0.0	0	0	0	FR3	0	R1236J
155.304	0.951	397482	WORD_OFF	n/a	n/a	TANK	4	0	1	[0, 0, 0]	n/a	0	0	0	n/a	n/a	0.0	0	0	0	FR3	0	R1236J
156.255	1.6	398433	WORD	n/a	wordpools/wordpool.txt	FENCE	5	0	1	[0, 0, 0]	n/a	0	0	0	n/a	n/a	0.0	0	0	0	FR3	0	R1236J
157.87	0.968	400048	WORD_OFF	n/a	n/a	FENCE	5	0	1	[0, 0, 0]	n/a	0	0	0	n/a	n/a	0.0	0	0	0	FR3	0	R1236J
158.838	1.6	401016	WORD	n/a	wordpools/wordpool.txt	VASE	6	0	1	[0, 0, 0]	n/a	0	0	0	n/a	n/a	0.0	0	0	0	FR3	0	R1236J
160.455	0.934	402633	WORD_OFF	n/a	n/a	VASE	6	0	1	[0, 0, 0]	n/a	0	0	0	n/a	n/a	0.0	0	0	0	FR3	0	R1236J
161.389	1.6	403567	WORD	n/a	wordpools/wordpool.txt	TREE	7	0	1	[0, 0, 0]	n/a	0	0	0	n/a	n/a	0.0	0	0	0	FR3	0	R1236J
163.005	0.933	405183	WORD_OFF	n/a	n/a	TREE	7	0	1	[0, 0, 0]	n/a	0	0	0	n/a	n/a	0.0	0	0	0	FR3	0	R1236J
163.938	1.6	406116	WORD	n/a	wordpools/wordpool.txt	BED	8	0	1	[0, 0, 0]	n/a	0	0	0	n/a	n/a	0.0	0	0	0	FR3	0	R1236J
165.556	1.0	407734	WORD_OFF	n/a	n/a	BED	8	0	1	[0, 0, 0]	n/a	0	0	0	n/a	n/a	0.0	0	0	0	FR3	0	R1236J
166.556	1.6	408734	WORD	n/a	wordpools/wordpool.txt	BEAK	9	0	1	[0, 0, 0]	n/a	0	0	0	n/a	n/a	0.0	0	0	0	FR3	0	R1236J
168.172	0.817	410350	WORD_OFF	n/a	n/a	BEAK	9	0	1	[0, 0, 0]	n/a	0	0	0	n/a	n/a	0.0	0	0	0	FR3	0	R1236J
168.989	1.6	411167	WORD	n/a	wordpools/wordpool.txt	HOLE	10	0	1	[0, 0, 0]	n/a	0	0	0	n/a	n/a	0.0	0	0	0	FR3	0	R1236J
170.606	0.834	412784	WORD_OFF	n/a	n/a	HOLE	10	0	1	[0, 0, 0]	n/a	0	0	0	n/a	n/a	0.0	0	0	0	FR3	0	R1236J
171.44	1.6	413618	WORD	n/a	wordpools/wordpool.txt	YARD	11	0	1	[0, 0, 0]	n/a	0	0	0	n/a	n/a	0.0	0	0	0	FR3	0	R1236J
173.056	0.917	415234	WORD_OFF	n/a	n/a	YARD	11	0	1	[0, 0, 0]	n/a	0	0	0	n/a	n/a	0.0	0	0	0	FR3	0	R1236J
173.973	1.6	416151	WORD	n/a	wordpools/wordpool.txt	CALF	12	0	1	[0, 0, 0]	n/a	0	0	0	n/a	n/a	0.0	0	0	0	FR3	0	R1236J
175.59	0.0	417768	WORD_OFF	n/a	n/a	CALF	12	0	1	[0, 0, 0]	n/a	0	0	0	n/a	n/a	0.0	0	0	0	FR3	0	R1236J
175.59	0.001	417768	DISTRACT_START	n/a	n/a	n/a	-999	0	1	[0, 0, 0]	n/a	0	0	0	n/a	n/a	0.0	0	0	0	FR3	0	R1236J
175.591	0.016	417769	START	n/a	n/a	n/a	-999	0	1	[-999, -999, -999]	n/a	0	0	0	n/a	n/a	0.0	0	0	0	FR3	0	R1236J
175.607	6.618	417785	PROB	6.59	n/a	n/a	-999	0	1	[8, 9, 5]	22	0	0	0	n/a	n/a	0.0	0	0	0	FR3	0	R1236J
182.225	6.55	424403	PROB	6.516	n/a	n/a	-999	0	1	[9, 7, 8]	24	0	0	0	n/a	n/a	0.0	0	0	0	FR3	0	R1236J
188.775	3.4	430953	PROB	3.373	n/a	n/a	-999	0	1	[7, 1, 2]	10	0	0	0	n/a	n/a	0.0	0	0	0	FR3	0	R1236J
192.175	11.358	434353	PROB	11.358	n/a	n/a	-999	0	1	[9, 7, 8]	24	0	0	0	n/a	n/a	0.0	0	0	0	FR3	0	R1236J
203.533	0.011	445711	STOP	n/a	n/a	n/a	-999	0	1	[-999, -999, -999]	n/a	0	0	0	n/a	n/a	0.0	0	0	0	FR3	0	R1236J
203.544	0.7	445722	DISTRACT_END	n/a	n/a	n/a	-999	0	1	[0, 0, 0]	n/a	0	0	0	n/a	n/a	0.0	0	0	0	FR3	0	R1236J
204.244	0.5	446422	RETRIEVAL_ORIENT	n/a	n/a	n/a	-999	0	1	[0, 0, 0]	n/a	0	0	0	n/a	n/a	0.0	0	0	0	FR3	0	R1236J
204.761	1.348	446939	REC_START	n/a	n/a	n/a	-999	0	1	[0, 0, 0]	n/a	0	0	0	n/a	n/a	0.0	0	0	0	FR3	0	R1236J
206.109	1.027	448287	REC_WORD	1.348	n/a	POOL	3	1	1	[0, 0, 0]	n/a	0	0	0	n/a	n/a	0.0	0	0	0	FR3	0	R1236J
207.136	17.085	449314	REC_WORD	2.375	n/a	WAVE	1	1	1	[0, 0, 0]	n/a	0	0	0	n/a	n/a	0.0	0	0	0	FR3	0	R1236J
224.221	7.715	466399	REC_WORD	19.46	n/a	WATCH	-999	0	1	[0, 0, 0]	n/a	0	0	0	n/a	n/a	0.0	0	0	0	FR3	0	R1236J
231.936	2.835	474114	REC_WORD	27.175	n/a	WATER	-999	0	1	[0, 0, 0]	n/a	0	0	0	n/a	n/a	0.0	0	0	0	FR3	0	R1236J
234.771	4.377	476949	REC_END	n/a	n/a	n/a	-999	0	1	[0, 0, 0]	n/a	0	0	0	n/a	n/a	0.0	0	0	0	FR3	0	R1236J
239.148	0.5	481326	TRIAL	n/a	n/a	n/a	-999	0	2	[0, 0, 0]	n/a	0	0	0	n/a	n/a	0.0	0	0	0	FR3	0	R1236J
239.648	10.0	481826	COUNTDOWN_START	n/a	n/a	n/a	-999	0	2	[0, 0, 0]	n/a	0	0	0	n/a	n/a	0.0	0	0	0	FR3	0	R1236J
250.076	0.006	492254	COUNTDOWN_END	n/a	n/a	n/a	-999	0	2	[0, 0, 0]	n/a	0	0	0	n/a	n/a	0.0	0	0	0	FR3	0	R1236J
250.082	1.6	492260	ORIENT	n/a	n/a	n/a	-999	0	2	[0, 0, 0]	n/a	0	0	0	n/a	n/a	0.0	0	0	0	FR3	0	R1236J
251.683	2.001	493861	ORIENT_OFF	n/a	n/a	n/a	-999	0	2	[0, 0, 0]	n/a	0	0	0	n/a	n/a	0.0	0	0	0	FR3	0	R1236J
253.684	1.6	495862	WORD	n/a	wordpools/wordpool.txt	LAWN	1	1	2	[0, 0, 0]	n/a	0	0	0	n/a	n/a	0.0	0	0	0	FR3	0	R1236J
255.3	0.884	497478	WORD_OFF	n/a	n/a	LAWN	1	0	2	[0, 0, 0]	n/a	0	0	0	n/a	n/a	0.0	0	0	0	FR3	0	R1236J
256.184	1.6	498362	WORD	n/a	wordpools/wordpool.txt	BAG	2	0	2	[0, 0, 0]	n/a	0	0	0	n/a	n/a	0.0	0	0	0	FR3	0	R1236J
257.801	0.933	499979	WORD_OFF	n/a	n/a	BAG	2	0	2	[0, 0, 0]	n/a	0	0	0	n/a	n/a	0.0	0	0	0	FR3	0	R1236J
258.734	1.6	500912	WORD	n/a	wordpools/wordpool.txt	DIME	3	0	2	[0, 0, 0]	n/a	0	0	0	n/a	n/a	0.0	0	0	0	FR3	0	R1236J
260.351	0.799	502529	WORD_OFF	n/a	n/a	DIME	3	0	2	[0, 0, 0]	n/a	0	0	0	n/a	n/a	0.0	0	0	0	FR3	0	R1236J
261.15	1.6	503328	WORD	n/a	wordpools/wordpool.txt	KITE	4	0	2	[0, 0, 0]	n/a	0	0	0	n/a	n/a	0.0	0	0	0	FR3	0	R1236J
262.768	0.767	504946	WORD_OFF	n/a	n/a	KITE	4	0	2	[0, 0, 0]	n/a	0	0	0	n/a	n/a	0.0	0	0	0	FR3	0	R1236J
263.535	1.6	505713	WORD	n/a	wordpools/wordpool.txt	RUG	5	0	2	[0, 0, 0]	n/a	0	0	0	n/a	n/a	0.0	0	0	0	FR3	0	R1236J
265.151	0.816	507329	WORD_OFF	n/a	n/a	RUG	5	0	2	[0, 0, 0]	n/a	0	0	0	n/a	n/a	0.0	0	0	0	FR3	0	R1236J
265.967	1.6	508145	WORD	n/a	wordpools/wordpool.txt	SMILE	6	0	2	[0, 0, 0]	n/a	0	0	0	n/a	n/a	0.0	0	0	0	FR3	0	R1236J
267.569	0.867	509747	WORD_OFF	n/a	n/a	SMILE	6	0	2	[0, 0, 0]	n/a	0	0	0	n/a	n/a	0.0	0	0	0	FR3	0	R1236J
268.436	1.6	510614	WORD	n/a	wordpools/wordpool.txt	BRICK	7	0	2	[0, 0, 0]	n/a	0	0	0	n/a	n/a	0.0	0	0	0	FR3	0	R1236J
270.052	0.9	512230	WORD_OFF	n/a	n/a	BRICK	7	0	2	[0, 0, 0]	n/a	0	0	0	n/a	n/a	0.0	0	0	0	FR3	0	R1236J
270.952	1.6	513130	WORD	n/a	wordpools/wordpool.txt	GLOVE	8	0	2	[0, 0, 0]	n/a	0	0	0	n/a	n/a	0.0	0	0	0	FR3	0	R1236J
272.57	0.95	514748	WORD_OFF	n/a	n/a	GLOVE	8	0	2	[0, 0, 0]	n/a	0	0	0	n/a	n/a	0.0	0	0	0	FR3	0	R1236J
273.52	1.6	515698	WORD	n/a	wordpools/wordpool.txt	CROW	9	0	2	[0, 0, 0]	n/a	0	0	0	n/a	n/a	0.0	0	0	0	FR3	0	R1236J
275.135	0.9	517313	WORD_OFF	n/a	n/a	CROW	9	0	2	[0, 0, 0]	n/a	0	0	0	n/a	n/a	0.0	0	0	0	FR3	0	R1236J
276.035	1.6	518213	WORD	n/a	wordpools/wordpool.txt	FOX	10	0	2	[0, 0, 0]	n/a	0	0	0	n/a	n/a	0.0	0	0	0	FR3	0	R1236J
277.653	0.784	519831	WORD_OFF	n/a	n/a	FOX	10	0	2	[0, 0, 0]	n/a	0	0	0	n/a	n/a	0.0	0	0	0	FR3	0	R1236J
278.437	1.6	520615	WORD	n/a	wordpools/wordpool.txt	PRINCE	11	0	2	[0, 0, 0]	n/a	0	0	0	n/a	n/a	0.0	0	0	0	FR3	0	R1236J
280.053	0.9	522231	WORD_OFF	n/a	n/a	PRINCE	11	0	2	[0, 0, 0]	n/a	0	0	0	n/a	n/a	0.0	0	0	0	FR3	0	R1236J
280.953	1.6	523131	WORD	n/a	wordpools/wordpool.txt	PALM	12	1	2	[0, 0, 0]	n/a	0	0	0	n/a	n/a	0.0	0	0	0	FR3	0	R1236J
282.571	0.0	524749	WORD_OFF	n/a	n/a	PALM	12	0	2	[0, 0, 0]	n/a	0	0	0	n/a	n/a	0.0	0	0	0	FR3	0	R1236J
282.571	0.001	524749	DISTRACT_START	n/a	n/a	n/a	-999	0	2	[0, 0, 0]	n/a	0	0	0	n/a	n/a	0.0	0	0	0	FR3	0	R1236J
282.572	0.016	524750	START	n/a	n/a	n/a	-999	0	2	[-999, -999, -999]	n/a	0	0	0	n/a	n/a	0.0	0	0	0	FR3	0	R1236J
282.588	4.65	524766	PROB	4.613	n/a	n/a	-999	0	2	[9, 5, 2]	16	0	0	0	n/a	n/a	0.0	0	0	0	FR3	0	R1236J
287.238	4.417	529416	PROB	4.387	n/a	n/a	-999	0	2	[7, 2, 6]	15	0	0	0	n/a	n/a	0.0	0	0	0	FR3	0	R1236J
291.655	3.934	533833	PROB	3.896	n/a	n/a	-999	0	2	[4, 2, 6]	12	0	0	0	n/a	n/a	0.0	0	0	0	FR3	0	R1236J
295.589	3.201	537767	PROB	3.164	n/a	n/a	-999	0	2	[1, 3, 5]	9	0	0	0	n/a	n/a	0.0	0	0	0	FR3	0	R1236J
298.79	4.305	540968	PROB	4.305	n/a	n/a	-999	0	2	[4, 8, 5]	17	0	0	0	n/a	n/a	0.0	0	0	0	FR3	0	R1236J
303.095	0.011	545273	STOP	n/a	n/a	n/a	-999	0	2	[-999, -999, -999]	n/a	0	0	0	n/a	n/a	0.0	0	0	0	FR3	0	R1236J
303.106	0.518	545284	DISTRACT_END	n/a	n/a	n/a	-999	0	2	[0, 0, 0]	n/a	0	0	0	n/a	n/a	0.0	0	0	0	FR3	0	R1236J
303.624	0.5	545802	RETRIEVAL_ORIENT	n/a	n/a	n/a	-999	0	2	[0, 0, 0]	n/a	0	0	0	n/a	n/a	0.0	0	0	0	FR3	0	R1236J
304.14	1.056	546318	REC_START	n/a	n/a	n/a	-999	0	2	[0, 0, 0]	n/a	0	0	0	n/a	n/a	0.0	0	0	0	FR3	0	R1236J
305.196	1.97	547374	REC_WORD	1.056	n/a	LAWN	1	1	2	[0, 0, 0]	n/a	0	0	0	n/a	n/a	0.0	0	0	0	FR3	0	R1236J
307.166	0.783	549344	REC_WORD	3.026	n/a	WAVE	-999	0	2	[0, 0, 0]	n/a	0	0	0	n/a	n/a	0.0	0	0	0	FR3	0	R1236J
307.949	5.609	550127	REC_WORD	3.809	n/a	PALM	12	1	2	[0, 0, 0]	n/a	0	0	0	n/a	n/a	0.0	0	0	0	FR3	0	R1236J
313.558	4.603	555736	REC_WORD	9.418	n/a	GROUND	-999	0	2	[0, 0, 0]	n/a	0	0	0	n/a	n/a	0.0	0	0	0	FR3	0	R1236J
318.161	3.51	560339	REC_WORD	14.021	n/a	POOL	-999	0	2	[0, 0, 0]	n/a	0	0	0	n/a	n/a	0.0	0	0	0	FR3	0	R1236J
321.671	12.481	563849	REC_WORD	17.531	n/a	HOLE	-999	0	2	[0, 0, 0]	n/a	0	0	0	n/a	n/a	0.0	0	0	0	FR3	0	R1236J
334.152	4.393	576330	REC_END	n/a	n/a	n/a	-999	0	2	[0, 0, 0]	n/a	0	0	0	n/a	n/a	0.0	0	0	0	FR3	0	R1236J
338.545	0.5	580723	TRIAL	n/a	n/a	n/a	-999	0	3	[0, 0, 0]	n/a	0	0	0	n/a	n/a	0.0	0	0	0	FR3	0	R1236J
339.045	10.0	581223	COUNTDOWN_START	n/a	n/a	n/a	-999	0	3	[0, 0, 0]	n/a	0	0	0	n/a	n/a	0.0	0	0	0	FR3	0	R1236J
349.473	0.006	591651	COUNTDOWN_END	n/a	n/a	n/a	-999	0	3	[0, 0, 0]	n/a	0	0	0	n/a	n/a	0.0	0	0	0	FR3	0	R1236J
349.479	1.6	591657	ORIENT	n/a	n/a	n/a	-999	0	3	[0, 0, 0]	n/a	0	0	0	n/a	n/a	0.0	0	0	0	FR3	0	R1236J
351.095	2.152	593273	ORIENT_OFF	n/a	n/a	n/a	-999	0	3	[0, 0, 0]	n/a	0	0	0	n/a	n/a	0.0	0	0	0	FR3	0	R1236J
353.247	1.6	595425	WORD	n/a	wordpools/wordpool.txt	CLOUD	1	1	3	[0, 0, 0]	n/a	0	0	0	n/a	n/a	0.0	0	0	0	FR3	0	R1236J
354.862	1.0	597040	WORD_OFF	n/a	n/a	CLOUD	1	0	3	[0, 0, 0]	n/a	0	0	0	n/a	n/a	0.0	0	0	0	FR3	0	R1236J
355.862	1.6	598040	WORD	n/a	wordpools/wordpool.txt	GRASS	2	0	3	[0, 0, 0]	n/a	0	0	0	n/a	n/a	0.0	0	0	0	FR3	0	R1236J
357.463	0.801	599641	WORD_OFF	n/a	n/a	GRASS	2	0	3	[0, 0, 0]	n/a	0	0	0	n/a	n/a	0.0	0	0	0	FR3	0	R1236J
358.264	1.6	600442	WORD	n/a	wordpools/wordpool.txt	SWORD	3	0	3	[0, 0, 0]	n/a	0	0	0	n/a	n/a	0.0	0	0	0	FR3	0	R1236J
359.88	1.0	602058	WORD_OFF	n/a	n/a	SWORD	3	0	3	[0, 0, 0]	n/a	0	0	0	n/a	n/a	0.0	0	0	0	FR3	0	R1236J
360.88	1.6	603058	WORD	n/a	wordpools/wordpool.txt	WEED	4	0	3	[0, 0, 0]	n/a	0	0	0	n/a	n/a	0.0	0	0	0	FR3	0	R1236J
362.498	0.8	604676	WORD_OFF	n/a	n/a	WEED	4	0	3	[0, 0, 0]	n/a	0	0	0	n/a	n/a	0.0	0	0	0	FR3	0	R1236J
363.298	1.6	605476	WORD	n/a	wordpools/wordpool.txt	HAWK	5	0	3	[0, 0, 0]	n/a	0	0	0	n/a	n/a	0.0	0	0	0	FR3	0	R1236J
364.913	0.835	607091	WORD_OFF	n/a	n/a	HAWK	5	0	3	[0, 0, 0]	n/a	0	0	0	n/a	n/a	0.0	0	0	0	FR3	0	R1236J
365.748	1.6	607926	WORD	n/a	wordpools/wordpool.txt	BRANCH	6	0	3	[0, 0, 0]	n/a	0	0	0	n/a	n/a	0.0	0	0	0	FR3	0	R1236J
367.365	0.833	609543	WORD_OFF	n/a	n/a	BRANCH	6	0	3	[0, 0, 0]	n/a	0	0	0	n/a	n/a	0.0	0	0	0	FR3	0	R1236J
368.198	1.6	610376	WORD	n/a	wordpools/wordpool.txt	WING	7	0	3	[0, 0, 0]	n/a	0	0	0	n/a	n/a	0.0	0	0	0	FR3	0	R1236J
369.815	0.817	611993	WORD_OFF	n/a	n/a	WING	7	0	3	[0, 0, 0]	n/a	0	0	0	n/a	n/a	0.0	0	0	0	FR3	0	R1236J
370.632	1.6	612810	WORD	n/a	wordpools/wordpool.txt	STAR	8	0	3	[0, 0, 0]	n/a	0	0	0	n/a	n/a	0.0	0	0	0	FR3	0	R1236J
372.249	0.799	614427	WORD_OFF	n/a	n/a	STAR	8	0	3	[0, 0, 0]	n/a	0	0	0	n/a	n/a	0.0	0	0	0	FR3	0	R1236J
373.048	1.6	615226	WORD	n/a	wordpools/wordpool.txt	SHIP	9	0	3	[0, 0, 0]	n/a	0	0	0	n/a	n/a	0.0	0	0	0	FR3	0	R1236J
374.666	0.883	616844	WORD_OFF	n/a	n/a	SHIP	9	0	3	[0, 0, 0]	n/a	0	0	0	n/a	n/a	0.0	0	0	0	FR3	0	R1236J
375.549	1.6	617727	WORD	n/a	wordpools/wordpool.txt	STONE	10	1	3	[0, 0, 0]	n/a	0	0	0	n/a	n/a	0.0	0	0	0	FR3	0	R1236J
377.165	0.867	619343	WORD_OFF	n/a	n/a	STONE	10	0	3	[0, 0, 0]	n/a	0	0	0	n/a	n/a	0.0	0	0	0	FR3	0	R1236J
378.032	1.6	620210	WORD	n/a	wordpools/wordpool.txt	SUN	11	1	3	[0, 0, 0]	n/a	0	0	0	n/a	n/a	0.0	0	0	0	FR3	0	R1236J
379.633	0.95	621811	WORD_OFF	n/a	n/a	SUN	11	0	3	[0, 0, 0]	n/a	0	0	0	n/a	n/a	0.0	0	0	0	FR3	0	R1236J
380.583	1.6	622761	WORD	n/a	wordpools/wordpool.txt	SKY	12	0	3	[0, 0, 0]	n/a	0	0	0	n/a	n/a	0.0	0	0	0	FR3	0	R1236J
382.2	0.0	624378	WORD_OFF	n/a	n/a	SKY	12	0	3	[0, 0, 0]	n/a	0	0	0	n/a	n/a	0.0	0	0	0	FR3	0	R1236J
382.2	0.001	624378	DISTRACT_START	n/a	n/a	n/a	-999	0	3	[0, 0, 0]	n/a	0	0	0	n/a	n/a	0.0	0	0	0	FR3	0	R1236J
382.201	0.016	624379	START	n/a	n/a	n/a	-999	0	3	[-999, -999, -999]	n/a	0	0	0	n/a	n/a	0.0	0	0	0	FR3	0	R1236J
382.217	4.0	624395	PROB	3.962	n/a	n/a	-999	0	3	[3, 3, 7]	13	0	0	0	n/a	n/a	0.0	0	0	0	FR3	0	R1236J
386.217	2.617	628395	PROB	2.587	n/a	n/a	-999	0	3	[3, 1, 1]	5	0	0	0	n/a	n/a	0.0	0	0	0	FR3	0	R1236J
388.834	3.617	631012	PROB	3.594	n/a	n/a	-999	0	3	[5, 2, 3]	10	0	0	0	n/a	n/a	0.0	0	0	0	FR3	0	R1236J
392.451	4.683	634629	PROB	4.648	n/a	n/a	-999	0	3	[6, 5, 5]	16	0	0	0	n/a	n/a	0.0	0	0	0	FR3	0	R1236J
397.134	3.368	639312	PROB	3.334	n/a	n/a	-999	0	3	[5, 2, 2]	9	0	0	0	n/a	n/a	0.0	0	0	0	FR3	0	R1236J
400.502	2.782	642680	PROB	2.782	n/a	n/a	-999	0	3	[5, 2, 5]	12	0	0	0	n/a	n/a	0.0	0	0	0	FR3	0	R1236J
403.284	0.019	645462	STOP	n/a	n/a	n/a	-999	0	3	[-999, -999, -999]	n/a	0	0	0	n/a	n/a	0.0	0	0	0	FR3	0	R1236J
403.303	0.616	645481	DISTRACT_END	n/a	n/a	n/a	-999	0	3	[0, 0, 0]	n/a	0	0	0	n/a	n/a	0.0	0	0	0	FR3	0	R1236J
403.919	0.5	646097	RETRIEVAL_ORIENT	n/a	n/a	n/a	-999	0	3	[0, 0, 0]	n/a	0	0	0	n/a	n/a	0.0	0	0	0	FR3	0	R1236J
404.437	1.028	646615	REC_START	n/a	n/a	n/a	-999	0	3	[0, 0, 0]	n/a	0	0	0	n/a	n/a	0.0	0	0	0	FR3	0	R1236J
405.465	0.791	647643	REC_WORD	1.028	n/a	CLOUD	1	1	3	[0, 0, 0]	n/a	0	0	0	n/a	n/a	0.0	0	0	0	FR3	0	R1236J
406.256	1.293	648434	REC_WORD	1.819	n/a	SUN	11	1	3	[0, 0, 0]	n/a	0	0	0	n/a	n/a	0.0	0	0	0	FR3	0	R1236J
407.549	2.405	649727	REC_WORD	3.112	n/a	LAWN	-999	0	3	[0, 0, 0]	n/a	0	0	0	n/a	n/a	0.0	0	0	0	FR3	0	R1236J
409.954	2.577	652132	REC_WORD	5.517	n/a	STICK	-999	0	3	[0, 0, 0]	n/a	0	0	0	n/a	n/a	0.0	0	0	0	FR3	0	R1236J
412.531	20.839	654709	REC_WORD	8.094	n/a	STONE	10	1	3	[0, 0, 0]	n/a	0	0	0	n/a	n/a	0.0	0	0	0	FR3	0	R1236J
433.37	1.078	675548	REC_WORD	28.933	n/a	FOG	-999	0	3	[0, 0, 0]	n/a	0	0	0	n/a	n/a	0.0	0	0	0	FR3	0	R1236J
434.448	4.809	676626	REC_END	n/a	n/a	n/a	-999	0	3	[0, 0, 0]	n/a	0	0	0	n/a	n/a	0.0	0	0	0	FR3	0	R1236J
439.257	0.5	681435	TRIAL	n/a	n/a	n/a	-999	0	4	[0, 0, 0]	n/a	0	0	0	n/a	n/a	0.0	0	0	0	FR3	0	R1236J
439.757	10.0	681935	COUNTDOWN_START	n/a	n/a	n/a	-999	0	4	[0, 0, 0]	n/a	0	0	0	n/a	n/a	0.0	0	0	0	FR3	0	R1236J
450.185	0.007	692363	COUNTDOWN_END	n/a	n/a	n/a	-999	0	4	[0, 0, 0]	n/a	0	0	0	n/a	n/a	0.0	0	0	0	FR3	0	R1236J
450.192	1.6	692370	ORIENT	n/a	n/a	n/a	-999	0	4	[0, 0, 0]	n/a	0	0	0	n/a	n/a	0.0	0	0	0	FR3	0	R1236J
451.809	1.934	693987	ORIENT_OFF	n/a	n/a	n/a	-999	0	4	[0, 0, 0]	n/a	0	0	0	n/a	n/a	0.0	0	0	0	FR3	0	R1236J
453.743	1.6	695921	WORD	n/a	wordpools/wordpool.txt	HAT	1	0	4	[0, 0, 0]	n/a	0	0	0	n/a	n/a	0.0	0	0	0	FR3	0	R1236J
455.359	0.783	697537	WORD_OFF	n/a	n/a	HAT	1	0	4	[0, 0, 0]	n/a	0	0	0	n/a	n/a	0.0	0	0	0	FR3	0	R1236J
456.142	1.6	698320	WORD	n/a	wordpools/wordpool.txt	GATE	2	1	4	[0, 0, 0]	n/a	0	0	0	n/a	n/a	0.0	0	0	0	FR3	0	R1236J
457.76	0.967	699938	WORD_OFF	n/a	n/a	GATE	2	0	4	[0, 0, 0]	n/a	0	0	0	n/a	n/a	0.0	0	0	0	FR3	0	R1236J
458.727	1.6	700905	WORD	n/a	wordpools/wordpool.txt	PARK	3	0	4	[0, 0, 0]	n/a	0	0	0	n/a	n/a	0.0	0	0	0	FR3	0	R1236J
460.344	0.849	702522	WORD_OFF	n/a	n/a	PARK	3	0	4	[0, 0, 0]	n/a	0	0	0	n/a	n/a	0.0	0	0	0	FR3	0	R1236J
461.193	1.6	703371	WORD	n/a	wordpools/wordpool.txt	STEAK	4	1	4	[0, 0, 0]	n/a	0	0	0	n/a	n/a	0.0	0	0	0	FR3	0	R1236J
462.827	1.017	705005	WORD_OFF	n/a	n/a	STEAK	4	0	4	[0, 0, 0]	n/a	0	0	0	n/a	n/a	0.0	0	0	0	FR3	0	R1236J
463.844	1.6	706022	WORD	n/a	wordpools/wordpool.txt	SPOON	5	1	4	[0, 0, 0]	n/a	0	0	0	n/a	n/a	0.0	0	0	0	FR3	0	R1236J
465.461	0.85	707639	WORD_OFF	n/a	n/a	SPOON	5	0	4	[0, 0, 0]	n/a	0	0	0	n/a	n/a	0.0	0	0	0	FR3	0	R1236J
466.311	1.6	708489	WORD	n/a	wordpools/wordpool.txt	CAVE	6	0	4	[0, 0, 0]	n/a	0	0	0	n/a	n/a	0.0	0	0	0	FR3	0	R1236J
467.927	1.017	710105	WORD_OFF	n/a	n/a	CAVE	6	0	4	[0, 0, 0]	n/a	0	0	0	n/a	n/a	0.0	0	0	0	FR3	0	R1236J
468.944	1.6	711122	WORD	n/a	wordpools/wordpool.txt	BLUSH	7	0	4	[0, 0, 0]	n/a	0	0	0	n/a	n/a	0.0	0	0	0	FR3	0	R1236J
470.561	0.867	712739	WORD_OFF	n/a	n/a	BLUSH	7	0	4	[0, 0, 0]	n/a	0	0	0	n/a	n/a	0.0	0	0	0	FR3	0	R1236J
471.428	1.6	713606	WORD	n/a	wordpools/wordpool.txt	STREET	8	0	4	[0, 0, 0]	n/a	0	0	0	n/a	n/a	0.0	0	0	0	FR3	0	R1236J
473.044	0.768	715222	WORD_OFF	n/a	n/a	STREET	8	0	4	[0, 0, 0]	n/a	0	0	0	n/a	n/a	0.0	0	0	0	FR3	0	R1236J
473.812	1.6	715990	WORD	n/a	wordpools/wordpool.txt	TENT	9	0	4	[0, 0, 0]	n/a	0	0	0	n/a	n/a	0.0	0	0	0	FR3	0	R1236J
475.429	0.95	717607	WORD_OFF	n/a	n/a	TENT	9	0	4	[0, 0, 0]	n/a	0	0	0	n/a	n/a	0.0	0	0	0	FR3	0	R1236J
476.379	1.6	718557	WORD	n/a	wordpools/wordpool.txt	SHEEP	10	0	4	[0, 0, 0]	n/a	0	0	0	n/a	n/a	0.0	0	0	0	FR3	0	R1236J
477.995	0.867	720173	WORD_OFF	n/a	n/a	SHEEP	10	0	4	[0, 0, 0]	n/a	0	0	0	n/a	n/a	0.0	0	0	0	FR3	0	R1236J
478.862	1.6	721040	WORD	n/a	wordpools/wordpool.txt	STRAW	11	0	4	[0, 0, 0]	n/a	0	0	0	n/a	n/a	0.0	0	0	0	FR3	0	R1236J
480.48	0.933	722658	WORD_OFF	n/a	n/a	STRAW	11	0	4	[0, 0, 0]	n/a	0	0	0	n/a	n/a	0.0	0	0	0	FR3	0	R1236J
481.413	1.6	723591	WORD	n/a	wordpools/wordpool.txt	WOOD	12	0	4	[0, 0, 0]	n/a	0	0	0	n/a	n/a	0.0	0	0	0	FR3	0	R1236J
483.029	0.0	725207	WORD_OFF	n/a	n/a	WOOD	12	0	4	[0, 0, 0]	n/a	0	0	0	n/a	n/a	0.0	0	0	0	FR3	0	R1236J
483.029	0.001	725207	DISTRACT_START	n/a	n/a	n/a	-999	0	4	[0, 0, 0]	n/a	0	0	0	n/a	n/a	0.0	0	0	0	FR3	0	R1236J
483.03	0.016	725208	START	n/a	n/a	n/a	-999	0	4	[-999, -999, -999]	n/a	0	0	0	n/a	n/a	0.0	0	0	0	FR3	0	R1236J
483.046	3.501	725224	PROB	3.475	n/a	n/a	-999	0	4	[6, 7, 4]	17	0	0	0	n/a	n/a	0.0	0	0	0	FR3	0	R1236J
486.547	3.084	728725	PROB	3.046	n/a	n/a	-999	0	4	[4, 1, 2]	7	0	0	0	n/a	n/a	0.0	0	0	0	FR3	0	R1236J
489.631	2.95	731809	PROB	2.922	n/a	n/a	-999	0	4	[9, 7, 1]	17	0	0	0	n/a	n/a	0.0	0	0	0	FR3	0	R1236J
492.581	2.634	734759	PROB	2.603	n/a	n/a	-999	0	4	[1, 6, 5]	12	0	0	0	n/a	n/a	0.0	0	0	0	FR3	0	R1236J
495.215	3.183	737393	PROB	3.154	n/a	n/a	-999	0	4	[4, 6, 5]	15	0	0	0	n/a	n/a	0.0	0	0	0	FR3	0	R1236J
498.398	4.184	740576	PROB	4.147	n/a	n/a	-999	0	4	[8, 9, 4]	21	0	0	0	n/a	n/a	0.0	0	0	0	FR3	0	R1236J
502.582	4.21	744760	PROB	4.21	n/a	n/a	-999	0	4	[9, 8, 5]	22	0	0	0	n/a	n/a	0.0	0	0	0	FR3	0	R1236J
506.792	0.007	748970	STOP	n/a	n/a	n/a	-999	0	4	[-999, -999, -999]	n/a	0	0	0	n/a	n/a	0.0	0	0	0	FR3	0	R1236J
506.799	0.617	748977	DISTRACT_END	n/a	n/a	n/a	-999	0	4	[0, 0, 0]	n/a	0	0	0	n/a	n/a	0.0	0	0	0	FR3	0	R1236J
507.416	0.5	749594	RETRIEVAL_ORIENT	n/a	n/a	n/a	-999	0	4	[0, 0, 0]	n/a	0	0	0	n/a	n/a	0.0	0	0	0	FR3	0	R1236J
507.933	0.53	750111	REC_START	n/a	n/a	n/a	-999	0	4	[0, 0, 0]	n/a	0	0	0	n/a	n/a	0.0	0	0	0	FR3	0	R1236J
508.463	1.077	750641	REC_WORD	0.53	n/a	SPOON	5	1	4	[0, 0, 0]	n/a	0	0	0	n/a	n/a	0.0	0	0	0	FR3	0	R1236J
509.54	3.74	751718	REC_WORD	1.607	n/a	STEAK	4	1	4	[0, 0, 0]	n/a	0	0	0	n/a	n/a	0.0	0	0	0	FR3	0	R1236J
513.28	2.86	755458	REC_WORD	5.347	n/a	GATE	2	1	4	[0, 0, 0]	n/a	0	0	0	n/a	n/a	0.0	0	0	0	FR3	0	R1236J
516.14	21.803	758318	REC_WORD	8.207	n/a	TRAIL	-999	0	4	[0, 0, 0]	n/a	0	0	0	n/a	n/a	0.0	0	0	0	FR3	0	R1236J
537.943	4.611	780121	REC_END	n/a	n/a	n/a	-999	0	4	[0, 0, 0]	n/a	0	0	0	n/a	n/a	0.0	0	0	0	FR3	0	R1236J
542.554	0.5	784732	TRIAL	n/a	n/a	n/a	-999	0	5	[0, 0, 0]	n/a	0	0	0	n/a	n/a	0.0	0	0	0	FR3	0	R1236J
543.054	10.0	785232	COUNTDOWN_START	n/a	n/a	n/a	-999	0	5	[0, 0, 0]	n/a	0	0	0	n/a	n/a	0.0	0	0	0	FR3	0	R1236J
553.482	0.007	795660	COUNTDOWN_END	n/a	n/a	n/a	-999	0	5	[0, 0, 0]	n/a	0	0	0	n/a	n/a	0.0	0	0	0	FR3	0	R1236J
553.489	1.6	795667	ORIENT	n/a	n/a	n/a	-999	0	5	[0, 0, 0]	n/a	0	0	0	n/a	n/a	0.0	0	0	0	FR3	0	R1236J
555.104	2.034	797282	ORIENT_OFF	n/a	n/a	n/a	-999	0	5	[0, 0, 0]	n/a	0	0	0	n/a	n/a	0.0	0	0	0	FR3	0	R1236J
557.138	1.6	799316	WORD	n/a	wordpools/wordpool.txt	BRIDGE	1	0	5	[0, 0, 0]	n/a	0	0	0	n/a	n/a	0.0	0	0	0	FR3	0	R1236J
558.756	0.95	800934	WORD_OFF	n/a	n/a	BRIDGE	1	0	5	[0, 0, 0]	n/a	0	0	0	n/a	n/a	0.0	0	0	0	FR3	0	R1236J
559.706	1.6	801884	WORD	n/a	wordpools/wordpool.txt	HOOF	2	1	5	[0, 0, 0]	n/a	0	0	0	n/a	n/a	0.0	0	0	0	FR3	0	R1236J
561.323	0.9	803501	WORD_OFF	n/a	n/a	HOOF	2	0	5	[0, 0, 0]	n/a	0	0	0	n/a	n/a	0.0	0	0	0	FR3	0	R1236J
562.223	1.6	804401	WORD	n/a	wordpools/wordpool.txt	STRING	3	0	5	[0, 0, 0]	n/a	0	0	0	n/a	n/a	0.0	0	0	0	FR3	0	R1236J
563.84	0.917	806018	WORD_OFF	n/a	n/a	STRING	3	0	5	[0, 0, 0]	n/a	0	0	0	n/a	n/a	0.0	0	0	0	FR3	0	R1236J
564.757	1.6	806935	WORD	n/a	wordpools/wordpool.txt	PEACH	4	0	5	[0, 0, 0]	n/a	0	0	0	n/a	n/a	0.0	0	0	0	FR3	0	R1236J
566.374	0.966	808552	WORD_OFF	n/a	n/a	PEACH	4	0	5	[0, 0, 0]	n/a	0	0	0	n/a	n/a	0.0	0	0	0	FR3	0	R1236J
567.34	1.6	809518	WORD	n/a	wordpools/wordpool.txt	RAKE	5	0	5	[0, 0, 0]	n/a	0	0	0	n/a	n/a	0.0	0	0	0	FR3	0	R1236J
568.956	0.885	811134	WORD_OFF	n/a	n/a	RAKE	5	0	5	[0, 0, 0]	n/a	0	0	0	n/a	n/a	0.0	0	0	0	FR3	0	R1236J
569.841	1.6	812019	WORD	n/a	wordpools/wordpool.txt	TRAY	6	0	5	[0, 0, 0]	n/a	0	0	0	n/a	n/a	0.0	0	0	0	FR3	0	R1236J
571.458	0.8	813636	WORD_OFF	n/a	n/a	TRAY	6	0	5	[0, 0, 0]	n/a	0	0	0	n/a	n/a	0.0	0	0	0	FR3	0	R1236J
572.258	1.6	814436	WORD	n/a	wordpools/wordpool.txt	CAR	7	0	5	[0, 0, 0]	n/a	0	0	0	n/a	n/a	0.0	0	0	0	FR3	0	R1236J
573.874	0.867	816052	WORD_OFF	n/a	n/a	CAR	7	0	5	[0, 0, 0]	n/a	0	0	0	n/a	n/a	0.0	0	0	0	FR3	0	R1236J
574.741	1.6	816919	WORD	n/a	wordpools/wordpool.txt	PIPE	8	0	5	[0, 0, 0]	n/a	0	0	0	n/a	n/a	0.0	0	0	0	FR3	0	R1236J
576.358	0.867	818536	WORD_OFF	n/a	n/a	PIPE	8	0	5	[0, 0, 0]	n/a	0	0	0	n/a	n/a	0.0	0	0	0	FR3	0	R1236J
577.225	1.6	819403	WORD	n/a	wordpools/wordpool.txt	MAZE	9	1	5	[0, 0, 0]	n/a	0	0	0	n/a	n/a	0.0	0	0	0	FR3	0	R1236J
578.842	0.833	821020	WORD_OFF	n/a	n/a	MAZE	9	0	5	[0, 0, 0]	n/a	0	0	0	n/a	n/a	0.0	0	0	0	FR3	0	R1236J
579.675	1.6	821853	WORD	n/a	wordpools/wordpool.txt	SHIELD	10	1	5	[0, 0, 0]	n/a	0	0	0	n/a	n/a	0.0	0	0	0	FR3	0	R1236J
581.292	1.001	823470	WORD_OFF	n/a	n/a	SHIELD	10	0	5	[0, 0, 0]	n/a	0	0	0	n/a	n/a	0.0	0	0	0	FR3	0	R1236J
582.293	1.6	824471	WORD	n/a	wordpools/wordpool.txt	SNOW	11	0	5	[0, 0, 0]	n/a	0	0	0	n/a	n/a	0.0	0	0	0	FR3	0	R1236J
583.909	0.8	826087	WORD_OFF	n/a	n/a	SNOW	11	0	5	[0, 0, 0]	n/a	0	0	0	n/a	n/a	0.0	0	0	0	FR3	0	R1236J
584.709	1.6	826887	WORD	n/a	wordpools/wordpool.txt	BOX	12	0	5	[0, 0, 0]	n/a	0	0	0	n/a	n/a	0.0	0	0	0	FR3	0	R1236J
586.326	0.0	828504	WORD_OFF	n/a	n/a	BOX	12	0	5	[0, 0, 0]	n/a	0	0	0	n/a	n/a	0.0	0	0	0	FR3	0	R1236J
586.326	0.001	828504	DISTRACT_START	n/a	n/a	n/a	-999	0	5	[0, 0, 0]	n/a	0	0	0	n/a	n/a	0.0	0	0	0	FR3	0	R1236J
586.327	0.016	828505	START	n/a	n/a	n/a	-999	0	5	[-999, -999, -999]	n/a	0	0	0	n/a	n/a	0.0	0	0	0	FR3	0	R1236J
586.343	5.117	828521	PROB	5.094	n/a	n/a	-999	0	5	[8, 7, 8]	23	0	0	0	n/a	n/a	0.0	0	0	0	FR3	0	R1236J
591.46	2.65	833638	PROB	2.623	n/a	n/a	-999	0	5	[2, 2, 7]	11	0	0	0	n/a	n/a	0.0	0	0	0	FR3	0	R1236J
594.11	4.485	836288	PROB	4.462	n/a	n/a	-999	0	5	[4, 5, 8]	17	0	0	0	n/a	n/a	0.0	0	0	0	FR3	0	R1236J
598.595	3.117	840773	PROB	3.09	n/a	n/a	-999	0	5	[9, 7, 2]	18	0	0	0	n/a	n/a	0.0	0	0	0	FR3	0	R1236J
601.712	3.416	843890	PROB	3.386	n/a	n/a	-999	0	5	[1, 7, 2]	10	0	0	0	n/a	n/a	0.0	0	0	0	FR3	0	R1236J
605.128	4.075	847306	PROB	4.075	n/a	n/a	-999	0	5	[3, 2, 3]	8	0	0	0	n/a	n/a	0.0	0	0	0	FR3	0	R1236J
609.203	0.01	851381	STOP	n/a	n/a	n/a	-999	0	5	[-999, -999, -999]	n/a	0	0	0	n/a	n/a	0.0	0	0	0	FR3	0	R1236J
609.213	0.648	851391	DISTRACT_END	n/a	n/a	n/a	-999	0	5	[0, 0, 0]	n/a	0	0	0	n/a	n/a	0.0	0	0	0	FR3	0	R1236J
609.861	0.5	852039	RETRIEVAL_ORIENT	n/a	n/a	n/a	-999	0	5	[0, 0, 0]	n/a	0	0	0	n/a	n/a	0.0	0	0	0	FR3	0	R1236J
610.38	1.305	852558	REC_START	n/a	n/a	n/a	-999	0	5	[0, 0, 0]	n/a	0	0	0	n/a	n/a	0.0	0	0	0	FR3	0	R1236J
611.685	4.794	853863	REC_WORD	1.305	n/a	SHIELD	10	1	5	[0, 0, 0]	n/a	0	0	0	n/a	n/a	0.0	0	0	0	FR3	0	R1236J
616.479	5.627	858657	REC_WORD	6.099	n/a	HOOF	2	1	5	[0, 0, 0]	n/a	0	0	0	n/a	n/a	0.0	0	0	0	FR3	0	R1236J
622.106	18.284	864284	REC_WORD	11.726	n/a	MAZE	9	1	5	[0, 0, 0]	n/a	0	0	0	n/a	n/a	0.0	0	0	0	FR3	0	R1236J
640.39	4.36	882568	REC_END	n/a	n/a	n/a	-999	0	5	[0, 0, 0]	n/a	0	0	0	n/a	n/a	0.0	0	0	0	FR3	0	R1236J
644.75	0.5	886928	TRIAL	n/a	n/a	n/a	-999	0	6	[0, 0, 0]	n/a	0	0	0	n/a	n/a	0.0	0	0	0	FR3	0	R1236J
645.25	10.0	887428	COUNTDOWN_START	n/a	n/a	n/a	-999	0	6	[0, 0, 0]	n/a	0	0	0	n/a	n/a	0.0	0	0	0	FR3	0	R1236J
655.678	0.007	897856	COUNTDOWN_END	n/a	n/a	n/a	-999	0	6	[0, 0, 0]	n/a	0	0	0	n/a	n/a	0.0	0	0	0	FR3	0	R1236J
655.685	1.6	897863	ORIENT	n/a	n/a	n/a	-999	0	6	[0, 0, 0]	n/a	0	0	0	n/a	n/a	0.0	0	0	0	FR3	0	R1236J
657.302	2.267	899480	ORIENT_OFF	n/a	n/a	n/a	-999	0	6	[0, 0, 0]	n/a	0	0	0	n/a	n/a	0.0	0	0	0	FR3	0	R1236J
659.569	1.6	901747	WORD	n/a	wordpools/wordpool.txt	ROSE	1	0	6	[0, 0, 0]	n/a	0	0	0	n/a	n/a	0.0	0	0	0	FR3	0	R1236J
661.186	0.949	903364	WORD_OFF	n/a	n/a	ROSE	1	0	6	[0, 0, 0]	n/a	0	0	0	n/a	n/a	0.0	0	0	0	FR3	0	R1236J
662.135	1.6	904313	WORD	n/a	wordpools/wordpool.txt	SHRIMP	2	1	6	[0, 0, 0]	n/a	0	0	0	n/a	n/a	0.0	0	0	0	FR3	0	R1236J
663.753	0.983	905931	WORD_OFF	n/a	n/a	SHRIMP	2	0	6	[0, 0, 0]	n/a	0	0	0	n/a	n/a	0.0	0	0	0	FR3	0	R1236J
664.736	1.6	906914	WORD	n/a	wordpools/wordpool.txt	STOVE	3	1	6	[0, 0, 0]	n/a	0	0	0	n/a	n/a	0.0	0	0	0	FR3	0	R1236J
666.353	0.799	908531	WORD_OFF	n/a	n/a	STOVE	3	0	6	[0, 0, 0]	n/a	0	0	0	n/a	n/a	0.0	0	0	0	FR3	0	R1236J
667.152	1.6	909330	WORD	n/a	wordpools/wordpool.txt	CROWN	4	1	6	[0, 0, 0]	n/a	0	0	0	n/a	n/a	0.0	0	0	0	FR3	0	R1236J
668.77	1.0	910948	WORD_OFF	n/a	n/a	CROWN	4	0	6	[0, 0, 0]	n/a	0	0	0	n/a	n/a	0.0	0	0	0	FR3	0	R1236J
669.77	1.6	911948	WORD	n/a	wordpools/wordpool.txt	VAN	5	1	6	[0, 0, 0]	n/a	0	0	0	n/a	n/a	0.0	0	0	0	FR3	0	R1236J
671.387	0.766	913565	WORD_OFF	n/a	n/a	VAN	5	0	6	[0, 0, 0]	n/a	0	0	0	n/a	n/a	0.0	0	0	0	FR3	0	R1236J
672.153	1.6	914331	WORD	n/a	wordpools/wordpool.txt	STAIR	6	0	6	[0, 0, 0]	n/a	0	0	0	n/a	n/a	0.0	0	0	0	FR3	0	R1236J
673.754	0.9	915932	WORD_OFF	n/a	n/a	STAIR	6	0	6	[0, 0, 0]	n/a	0	0	0	n/a	n/a	0.0	0	0	0	FR3	0	R1236J
674.654	1.6	916832	WORD	n/a	wordpools/wordpool.txt	BOWL	7	1	6	[0, 0, 0]	n/a	0	0	0	n/a	n/a	0.0	0	0	0	FR3	0	R1236J
676.271	0.816	918450	WORD_OFF	n/a	n/a	BOWL	7	0	6	[0, 0, 0]	n/a	0	0	0	n/a	n/a	0.0	0	0	0	FR3	0	R1236J
677.087	1.6	919266	WORD	n/a	wordpools/wordpool.txt	EEL	8	1	6	[0, 0, 0]	n/a	0	0	0	n/a	n/a	0.0	0	0	0	FR3	0	R1236J
678.705	0.95	920884	WORD_OFF	n/a	n/a	EEL	8	0	6	[0, 0, 0]	n/a	0	0	0	n/a	n/a	0.0	0	0	0	FR3	0	R1236J
679.655	1.6	921834	WORD	n/a	wordpools/wordpool.txt	TOAST	9	0	6	[0, 0, 0]	n/a	0	0	0	n/a	n/a	0.0	0	0	0	FR3	0	R1236J
681.272	0.799	923451	WORD_OFF	n/a	n/a	TOAST	9	0	6	[0, 0, 0]	n/a	0	0	0	n/a	n/a	0.0	0	0	0	FR3	0	R1236J
682.071	1.6	924250	WORD	n/a	wordpools/wordpool.txt	BARN	10	0	6	[0, 0, 0]	n/a	0	0	0	n/a	n/a	0.0	0	0	0	FR3	0	R1236J
683.689	0.8	925868	WORD_OFF	n/a	n/a	BARN	10	0	6	[0, 0, 0]	n/a	0	0	0	n/a	n/a	0.0	0	0	0	FR3	0	R1236J
684.489	1.6	926668	WORD	n/a	wordpools/wordpool.txt	FORK	11	1	6	[0, 0, 0]	n/a	0	0	0	n/a	n/a	0.0	0	0	0	FR3	0	R1236J
686.105	0.866	928284	WORD_OFF	n/a	n/a	FORK	11	0	6	[0, 0, 0]	n/a	0	0	0	n/a	n/a	0.0	0	0	0	FR3	0	R1236J
686.971	1.6	929150	WORD	n/a	wordpools/wordpool.txt	LEG	12	1	6	[0, 0, 0]	n/a	0	0	0	n/a	n/a	0.0	0	0	0	FR3	0	R1236J
688.589	0.0	930768	DISTRACT_START	n/a	n/a	n/a	-999	0	6	[0, 0, 0]	n/a	0	0	0	n/a	n/a	0.0	0	0	0	FR3	0	R1236J
688.589	0.001	930768	WORD_OFF	n/a	n/a	LEG	12	0	6	[0, 0, 0]	n/a	0	0	0	n/a	n/a	0.0	0	0	0	FR3	0	R1236J
688.59	0.016	930769	START	n/a	n/a	n/a	-999	0	6	[-999, -999, -999]	n/a	0	0	0	n/a	n/a	0.0	0	0	0	FR3	0	R1236J
688.606	3.984	930785	PROB	3.954	n/a	n/a	-999	0	6	[5, 5, 9]	19	0	0	0	n/a	n/a	0.0	0	0	0	FR3	0	R1236J
692.59	3.25	934769	PROB	3.219	n/a	n/a	-999	0	6	[5, 2, 3]	10	0	0	0	n/a	n/a	0.0	0	0	0	FR3	0	R1236J
695.84	3.968	938019	PROB	3.936	n/a	n/a	-999	0	6	[2, 8, 8]	18	0	0	0	n/a	n/a	0.0	0	0	0	FR3	0	R1236J
699.808	3.45	941987	PROB	3.423	n/a	n/a	-999	0	6	[2, 8, 6]	16	0	0	0	n/a	n/a	0.0	0	0	0	FR3	0	R1236J
703.258	4.334	945437	PROB	4.302	n/a	n/a	-999	0	6	[8, 4, 6]	18	0	0	0	n/a	n/a	0.0	0	0	0	FR3	0	R1236J
707.592	3.383	949771	PROB	3.383	n/a	n/a	-999	0	6	[7, 1, 5]	13	0	0	0	n/a	n/a	0.0	0	0	0	FR3	0	R1236J
710.975	0.016	953154	STOP	n/a	n/a	n/a	-999	0	6	[-999, -999, -999]	n/a	0	0	0	n/a	n/a	0.0	0	0	0	FR3	0	R1236J
710.991	0.652	953170	DISTRACT_END	n/a	n/a	n/a	-999	0	6	[0, 0, 0]	n/a	0	0	0	n/a	n/a	0.0	0	0	0	FR3	0	R1236J
711.643	0.5	953822	RETRIEVAL_ORIENT	n/a	n/a	n/a	-999	0	6	[0, 0, 0]	n/a	0	0	0	n/a	n/a	0.0	0	0	0	FR3	0	R1236J
712.159	1.52	954338	REC_START	n/a	n/a	n/a	-999	0	6	[0, 0, 0]	n/a	0	0	0	n/a	n/a	0.0	0	0	0	FR3	0	R1236J
713.679	1.135	955858	REC_WORD	1.52	n/a	SHRIMP	2	1	6	[0, 0, 0]	n/a	0	0	0	n/a	n/a	0.0	0	0	0	FR3	0	R1236J
714.814	1.317	956993	REC_WORD	2.655	n/a	EEL	8	1	6	[0, 0, 0]	n/a	0	0	0	n/a	n/a	0.0	0	0	0	FR3	0	R1236J
716.131	1.291	958310	REC_WORD	3.972	n/a	STOVE	3	1	6	[0, 0, 0]	n/a	0	0	0	n/a	n/a	0.0	0	0	0	FR3	0	R1236J
717.422	1.632	959601	REC_WORD	5.263	n/a	CROWN	4	1	6	[0, 0, 0]	n/a	0	0	0	n/a	n/a	0.0	0	0	0	FR3	0	R1236J
719.054	7.196	961233	REC_WORD	6.895	n/a	VAN	5	1	6	[0, 0, 0]	n/a	0	0	0	n/a	n/a	0.0	0	0	0	FR3	0	R1236J
726.25	7.914	968429	REC_WORD	14.091	n/a	LEG	12	1	6	[0, 0, 0]	n/a	0	0	0	n/a	n/a	0.0	0	0	0	FR3	0	R1236J
734.164	2.964	976343	REC_WORD	22.005	n/a	BOWL	7	1	6	[0, 0, 0]	n/a	0	0	0	n/a	n/a	0.0	0	0	0	FR3	0	R1236J
737.128	5.042	979307	REC_WORD	24.969	n/a	FORK	11	1	6	[0, 0, 0]	n/a	0	0	0	n/a	n/a	0.0	0	0	0	FR3	0	R1236J
742.17	4.327	984349	REC_END	n/a	n/a	n/a	-999	0	6	[0, 0, 0]	n/a	0	0	0	n/a	n/a	0.0	0	0	0	FR3	0	R1236J
746.497	0.5	988676	TRIAL	n/a	n/a	n/a	-999	0	7	[0, 0, 0]	n/a	0	1	0	n/a	n/a	0.0	0	0	0	FR3	0	R1236J
746.997	10.0	989176	COUNTDOWN_START	n/a	n/a	n/a	-999	0	7	[0, 0, 0]	n/a	0	1	0	n/a	n/a	0.0	0	0	0	FR3	0	R1236J
757.425	0.007	999604	COUNTDOWN_END	n/a	n/a	n/a	-999	0	7	[0, 0, 0]	n/a	0	1	0	n/a	n/a	0.0	0	0	0	FR3	0	R1236J
757.432	1.6	999611	ORIENT	n/a	n/a	n/a	-999	0	7	[0, 0, 0]	n/a	0	1	0	n/a	n/a	0.0	0	0	0	FR3	0	R1236J
759.047	1.884	1001226	ORIENT_OFF	n/a	n/a	n/a	-999	0	7	[0, 0, 0]	n/a	0	1	0	n/a	n/a	0.0	0	0	0	FR3	0	R1236J
760.931	1.6	1003110	WORD	n/a	wordpools/wordpool.txt	TOY	1	1	7	[0, 0, 0]	n/a	0	1	0	n/a	n/a	0.0	0	0	0	FR3	0	R1236J
762.549	0.817	1004728	WORD_OFF	n/a	n/a	TOY	1	0	7	[0, 0, 0]	n/a	0	1	0	n/a	n/a	0.0	0	0	0	FR3	0	R1236J
763.366	1.6	1005545	WORD	n/a	wordpools/wordpool.txt	HOSE	2	0	7	[0, 0, 0]	n/a	0	1	0	n/a	n/a	0.0	0	0	0	FR3	0	R1236J
764.981	0.004	1007160	WORD_OFF	n/a	n/a	HOSE	2	0	7	[0, 0, 0]	n/a	0	1	0	n/a	n/a	0.0	0	0	0	FR3	0	R1236J
764.985	0.0	1007164	STIM_ON	n/a	n/a	n/a	2	0	7	[0, 0, 0]	n/a	1	1	500	LS4	LS5	500.0	100	50	300	FR3	0	R1236J
765.476	0.34	1007655	STIM_OFF	n/a	n/a	n/a	2	0	7	[0, 0, 0]	n/a	0	1	500	LS4	LS5	500.0	100	50	300	FR3	0	R1236J
765.816	1.6	1007995	WORD	n/a	wordpools/wordpool.txt	JUDGE	3	0	7	[0, 0, 0]	n/a	0	1	0	n/a	n/a	0.0	0	0	0	FR3	0	R1236J
767.433	0.917	1009612	WORD_OFF	n/a	n/a	JUDGE	3	0	7	[0, 0, 0]	n/a	0	1	0	n/a	n/a	0.0	0	0	0	FR3	0	R1236J
768.35	1.6	1010529	WORD	n/a	wordpools/wordpool.txt	DOLL	4	0	7	[0, 0, 0]	n/a	0	1	0	n/a	n/a	0.0	0	0	0	FR3	0	R1236J
769.966	1.0	1012145	WORD_OFF	n/a	n/a	DOLL	4	0	7	[0, 0, 0]	n/a	0	1	0	n/a	n/a	0.0	0	0	0	FR3	0	R1236J
770.966	1.6	1013145	WORD	n/a	wordpools/wordpool.txt	BOOK	5	0	7	[0, 0, 0]	n/a	0	1	0	n/a	n/a	0.0	0	0	0	FR3	0	R1236J
772.584	0.933	1014763	WORD_OFF	n/a	n/a	BOOK	5	0	7	[0, 0, 0]	n/a	0	1	0	n/a	n/a	0.0	0	0	0	FR3	0	R1236J
773.517	1.6	1015696	WORD	n/a	wordpools/wordpool.txt	TRAIN	6	1	7	[0, 0, 0]	n/a	0	1	0	n/a	n/a	0.0	0	0	0	FR3	0	R1236J
775.133	0.013	1017312	WORD_OFF	n/a	n/a	TRAIN	6	0	7	[0, 0, 0]	n/a	0	1	0	n/a	n/a	0.0	0	0	0	FR3	0	R1236J
775.146	0.0	1017325	STIM_ON	n/a	n/a	n/a	6	0	7	[0, 0, 0]	n/a	1	1	500	LS4	LS5	500.0	100	50	300	FR3	0	R1236J
775.636	0.397	1017815	STIM_OFF	n/a	n/a	n/a	6	0	7	[0, 0, 0]	n/a	0	1	500	LS4	LS5	500.0	100	50	300	FR3	0	R1236J
776.033	1.6	1018212	WORD	n/a	wordpools/wordpool.txt	FOAM	7	0	7	[0, 0, 0]	n/a	0	1	0	n/a	n/a	0.0	0	0	0	FR3	0	R1236J
777.651	0.012	1019830	WORD_OFF	n/a	n/a	FOAM	7	0	7	[0, 0, 0]	n/a	0	1	0	n/a	n/a	0.0	0	0	0	FR3	0	R1236J
777.663	0.0	1019842	STIM_ON	n/a	n/a	n/a	7	0	7	[0, 0, 0]	n/a	1	1	500	LS4	LS5	500.0	100	50	300	FR3	0	R1236J
778.153	0.381	1020332	STIM_OFF	n/a	n/a	n/a	7	0	7	[0, 0, 0]	n/a	0	1	500	LS4	LS5	500.0	100	50	300	FR3	0	R1236J
778.534	1.6	1020713	WORD	n/a	wordpools/wordpool.txt	OWL	8	1	7	[0, 0, 0]	n/a	0	1	0	n/a	n/a	0.0	0	0	0	FR3	0	R1236J
780.15	0.014	1022329	WORD_OFF	n/a	n/a	OWL	8	0	7	[0, 0, 0]	n/a	0	1	0	n/a	n/a	0.0	0	0	0	FR3	0	R1236J
780.164	0.0	1022343	STIM_ON	n/a	n/a	n/a	8	0	7	[0, 0, 0]	n/a	1	1	500	LS4	LS5	500.0	100	50	300	FR3	0	R1236J
780.654	0.446	1022833	STIM_OFF	n/a	n/a	n/a	8	0	7	[0, 0, 0]	n/a	0	1	500	LS4	LS5	500.0	100	50	300	FR3	0	R1236J
781.1	1.6	1023279	WORD	n/a	wordpools/wordpool.txt	MOON	9	1	7	[0, 0, 0]	n/a	0	1	0	n/a	n/a	0.0	0	0	0	FR3	0	R1236J
782.701	0.032	1024880	WORD_OFF	n/a	n/a	MOON	9	0	7	[0, 0, 0]	n/a	0	1	0	n/a	n/a	0.0	0	0	0	FR3	0	R1236J
782.733	0.0	1024912	STIM_ON	n/a	n/a	n/a	9	0	7	[0, 0, 0]	n/a	1	1	500	LS4	LS5	500.0	100	50	300	FR3	0	R1236J
783.223	0.428	1025402	STIM_OFF	n/a	n/a	n/a	9	0	7	[0, 0, 0]	n/a	0	1	500	LS4	LS5	500.0	100	50	300	FR3	0	R1236J
783.651	1.6	1025830	WORD	n/a	wordpools/wordpool.txt	MAP	10	1	7	[0, 0, 0]	n/a	0	1	0	n/a	n/a	0.0	0	0	0	FR3	0	R1236J
785.268	0.934	1027447	WORD_OFF	n/a	n/a	MAP	10	0	7	[0, 0, 0]	n/a	0	1	0	n/a	n/a	0.0	0	0	0	FR3	0	R1236J
786.202	1.6	1028381	WORD	n/a	wordpools/wordpool.txt	CONE	11	0	7	[0, 0, 0]	n/a	0	1	0	n/a	n/a	0.0	0	0	0	FR3	0	R1236J
787.819	0.883	1029998	WORD_OFF	n/a	n/a	CONE	11	0	7	[0, 0, 0]	n/a	0	1	0	n/a	n/a	0.0	0	0	0	FR3	0	R1236J
788.702	1.6	1030881	WORD	n/a	wordpools/wordpool.txt	MILK	12	1	7	[0, 0, 0]	n/a	0	1	0	n/a	n/a	0.0	0	0	0	FR3	0	R1236J
790.319	0.0	1032498	WORD_OFF	n/a	n/a	MILK	12	0	7	[0, 0, 0]	n/a	0	1	0	n/a	n/a	0.0	0	0	0	FR3	0	R1236J
790.319	0.001	1032498	DISTRACT_START	n/a	n/a	n/a	-999	0	7	[0, 0, 0]	n/a	0	1	0	n/a	n/a	0.0	0	0	0	FR3	0	R1236J
790.32	0.016	1032499	START	n/a	n/a	n/a	-999	0	7	[-999, -999, -999]	n/a	0	1	0	n/a	n/a	0.0	0	0	0	FR3	0	R1236J
790.336	0.001	1032515	PROB	6.195	n/a	n/a	-999	0	7	[8, 6, 5]	19	0	1	0	n/a	n/a	0.0	0	0	0	FR3	0	R1236J
790.337	0.0	1032516	STIM_ON	n/a	n/a	n/a	-999	0	7	[0, 0, 0]	n/a	1	1	500	LS4	LS5	500.0	100	50	300	FR3	0	R1236J
790.827	5.726	1033006	STIM_OFF	n/a	n/a	n/a	-999	0	7	[0, 0, 0]	n/a	0	1	500	LS4	LS5	500.0	100	50	300	FR3	0	R1236J
796.553	4.567	1038732	PROB	4.529	n/a	n/a	-999	0	7	[8, 5, 7]	20	0	1	0	n/a	n/a	0.0	0	0	0	FR3	0	R1236J
801.12	2.967	1043299	PROB	2.938	n/a	n/a	-999	0	7	[9, 1, 8]	18	0	1	0	n/a	n/a	0.0	0	0	0	FR3	0	R1236J
804.087	3.033	1046266	PROB	3.003	n/a	n/a	-999	0	7	[1, 4, 7]	12	0	1	0	n/a	n/a	0.0	0	0	0	FR3	0	R1236J
807.12	3.227	1049299	PROB	3.227	n/a	n/a	-999	0	7	[5, 9, 9]	23	0	1	0	n/a	n/a	0.0	0	0	0	FR3	0	R1236J
810.347	0.008	1052526	STOP	n/a	n/a	n/a	-999	0	7	[-999, -999, -999]	n/a	0	1	0	n/a	n/a	0.0	0	0	0	FR3	0	R1236J
810.355	0.549	1052534	DISTRACT_END	n/a	n/a	n/a	-999	0	7	[0, 0, 0]	n/a	0	1	0	n/a	n/a	0.0	0	0	0	FR3	0	R1236J
810.904	0.5	1053083	RETRIEVAL_ORIENT	n/a	n/a	n/a	-999	0	7	[0, 0, 0]	n/a	0	1	0	n/a	n/a	0.0	0	0	0	FR3	0	R1236J
811.423	1.739	1053602	REC_START	n/a	n/a	n/a	-999	0	7	[0, 0, 0]	n/a	0	1	0	n/a	n/a	0.0	0	0	0	FR3	0	R1236J
813.162	3.034	1055341	REC_WORD	1.739	n/a	MILK	12	1	7	[0, 0, 0]	n/a	0	1	0	n/a	n/a	0.0	0	0	0	FR3	0	R1236J
816.196	1.471	1058375	REC_WORD	4.773	n/a	MAP	10	1	7	[0, 0, 0]	n/a	0	1	0	n/a	n/a	0.0	0	0	0	FR3	0	R1236J
817.667	1.142	1059846	REC_WORD	6.244	n/a	OWL	8	1	7	[0, 0, 0]	n/a	0	1	0	n/a	n/a	0.0	0	0	0	FR3	0	R1236J
818.809	2.505	1060988	REC_WORD	7.386	n/a	MOON	9	1	7	[0, 0, 0]	n/a	0	1	0	n/a	n/a	0.0	0	0	0	FR3	0	R1236J
821.314	2.639	1063493	REC_WORD	9.891	n/a	TOY	1	1	7	[0, 0, 0]	n/a	0	1	0	n/a	n/a	0.0	0	0	0	FR3	0	R1236J
823.953	17.482	1066132	REC_WORD	12.53	n/a	TRAIN	6	1	7	[0, 0, 0]	n/a	0	1	0	n/a	n/a	0.0	0	0	0	FR3	0	R1236J
841.435	4.291	1083614	REC_END	n/a	n/a	n/a	-999	0	7	[0, 0, 0]	n/a	0	1	0	n/a	n/a	0.0	0	0	0	FR3	0	R1236J
845.726	0.5	1087905	TRIAL	n/a	n/a	n/a	-999	0	8	[0, 0, 0]	n/a	0	0	0	n/a	n/a	0.0	0	0	0	FR3	0	R1236J
846.226	10.0	1088405	COUNTDOWN_START	n/a	n/a	n/a	-999	0	8	[0, 0, 0]	n/a	0	0	0	n/a	n/a	0.0	0	0	0	FR3	0	R1236J
856.654	0.007	1098833	COUNTDOWN_END	n/a	n/a	n/a	-999	0	8	[0, 0, 0]	n/a	0	0	0	n/a	n/a	0.0	0	0	0	FR3	0	R1236J
856.661	1.6	1098840	ORIENT	n/a	n/a	n/a	-999	0	8	[0, 0, 0]	n/a	0	0	0	n/a	n/a	0.0	0	0	0	FR3	0	R1236J
858.278	2.017	1100457	ORIENT_OFF	n/a	n/a	n/a	-999	0	8	[0, 0, 0]	n/a	0	0	0	n/a	n/a	0.0	0	0	0	FR3	0	R1236J
860.295	1.6	1102474	WORD	n/a	wordpools/wordpool.txt	ROPE	1	0	8	[0, 0, 0]	n/a	0	0	0	n/a	n/a	0.0	0	0	0	FR3	0	R1236J
861.911	0.784	1104090	WORD_OFF	n/a	n/a	ROPE	1	0	8	[0, 0, 0]	n/a	0	0	0	n/a	n/a	0.0	0	0	0	FR3	0	R1236J
862.695	1.6	1104874	WORD	n/a	wordpools/wordpool.txt	SPARK	2	1	8	[0, 0, 0]	n/a	0	0	0	n/a	n/a	0.0	0	0	0	FR3	0	R1236J
864.312	0.933	1106491	WORD_OFF	n/a	n/a	SPARK	2	0	8	[0, 0, 0]	n/a	0	0	0	n/a	n/a	0.0	0	0	0	FR3	0	R1236J
865.245	1.6	1107424	WORD	n/a	wordpools/wordpool.txt	SHIRT	3	0	8	[0, 0, 0]	n/a	0	0	0	n/a	n/a	0.0	0	0	0	FR3	0	R1236J
866.861	0.918	1109040	WORD_OFF	n/a	n/a	SHIRT	3	0	8	[0, 0, 0]	n/a	0	0	0	n/a	n/a	0.0	0	0	0	FR3	0	R1236J
867.779	1.6	1109958	WORD	n/a	wordpools/wordpool.txt	NOSE	4	1	8	[0, 0, 0]	n/a	0	0	0	n/a	n/a	0.0	0	0	0	FR3	0	R1236J
869.396	0.967	1111575	WORD_OFF	n/a	n/a	NOSE	4	0	8	[0, 0, 0]	n/a	0	0	0	n/a	n/a	0.0	0	0	0	FR3	0	R1236J
870.363	1.6	1112542	WORD	n/a	wordpools/wordpool.txt	FACE	5	1	8	[0, 0, 0]	n/a	0	0	0	n/a	n/a	0.0	0	0	0	FR3	0	R1236J
871.979	0.9	1114158	WORD_OFF	n/a	n/a	FACE	5	0	8	[0, 0, 0]	n/a	0	0	0	n/a	n/a	0.0	0	0	0	FR3	0	R1236J
872.879	1.6	1115058	WORD	n/a	wordpools/wordpool.txt	ARK	6	1	8	[0, 0, 0]	n/a	0	0	0	n/a	n/a	0.0	0	0	0	FR3	0	R1236J
874.496	0.917	1116675	WORD_OFF	n/a	n/a	ARK	6	0	8	[0, 0, 0]	n/a	0	0	0	n/a	n/a	0.0	0	0	0	FR3	0	R1236J
875.413	1.6	1117592	WORD	n/a	wordpools/wordpool.txt	SEED	7	0	8	[0, 0, 0]	n/a	0	0	0	n/a	n/a	0.0	0	0	0	FR3	0	R1236J
877.029	0.884	1119208	WORD_OFF	n/a	n/a	SEED	7	0	8	[0, 0, 0]	n/a	0	0	0	n/a	n/a	0.0	0	0	0	FR3	0	R1236J
877.913	1.6	1120092	WORD	n/a	wordpools/wordpool.txt	BREAD	8	0	8	[0, 0, 0]	n/a	0	0	0	n/a	n/a	0.0	0	0	0	FR3	0	R1236J
879.531	0.85	1121710	WORD_OFF	n/a	n/a	BREAD	8	0	8	[0, 0, 0]	n/a	0	0	0	n/a	n/a	0.0	0	0	0	FR3	0	R1236J
880.381	1.6	1122560	WORD	n/a	wordpools/wordpool.txt	PIT	9	0	8	[0, 0, 0]	n/a	0	0	0	n/a	n/a	0.0	0	0	0	FR3	0	R1236J
881.997	0.9	1124176	WORD_OFF	n/a	n/a	PIT	9	0	8	[0, 0, 0]	n/a	0	0	0	n/a	n/a	0.0	0	0	0	FR3	0	R1236J
882.897	1.6	1125076	WORD	n/a	wordpools/wordpool.txt	SINK	10	0	8	[0, 0, 0]	n/a	0	0	0	n/a	n/a	0.0	0	0	0	FR3	0	R1236J
884.514	0.951	1126693	WORD_OFF	n/a	n/a	SINK	10	0	8	[0, 0, 0]	n/a	0	0	0	n/a	n/a	0.0	0	0	0	FR3	0	R1236J
885.465	1.6	1127644	WORD	n/a	wordpools/wordpool.txt	CHAIR	11	0	8	[0, 0, 0]	n/a	0	0	0	n/a	n/a	0.0	0	0	0	FR3	0	R1236J
887.08	0.901	1129259	WORD_OFF	n/a	n/a	CHAIR	11	0	8	[0, 0, 0]	n/a	0	0	0	n/a	n/a	0.0	0	0	0	FR3	0	R1236J
887.981	1.6	1130160	WORD	n/a	wordpools/wordpool.txt	SKUNK	12	0	8	[0, 0, 0]	n/a	0	0	0	n/a	n/a	0.0	0	0	0	FR3	0	R1236J
889.598	0.0	1131777	WORD_OFF	n/a	n/a	SKUNK	12	0	8	[0, 0, 0]	n/a	0	0	0	n/a	n/a	0.0	0	0	0	FR3	0	R1236J
889.598	0.001	1131777	DISTRACT_START	n/a	n/a	n/a	-999	0	8	[0, 0, 0]	n/a	0	0	0	n/a	n/a	0.0	0	0	0	FR3	0	R1236J
889.599	0.016	1131778	START	n/a	n/a	n/a	-999	0	8	[-999, -999, -999]	n/a	0	0	0	n/a	n/a	0.0	0	0	0	FR3	0	R1236J
889.615	2.95	1131794	PROB	2.913	n/a	n/a	-999	0	8	[9, 1, 2]	12	0	0	0	n/a	n/a	0.0	0	0	0	FR3	0	R1236J
892.565	4.201	1134744	PROB	4.163	n/a	n/a	-999	0	8	[3, 7, 7]	17	0	0	0	n/a	n/a	0.0	0	0	0	FR3	0	R1236J
896.766	2.434	1138945	PROB	2.4	n/a	n/a	-999	0	8	[1, 5, 5]	11	0	0	0	n/a	n/a	0.0	0	0	0	FR3	0	R1236J
899.2	2.467	1141379	PROB	2.441	n/a	n/a	-999	0	8	[4, 6, 1]	11	0	0	0	n/a	n/a	0.0	0	0	0	FR3	0	R1236J
901.667	2.95	1143846	PROB	2.925	n/a	n/a	-999	0	8	[1, 6, 9]	16	0	0	0	n/a	n/a	0.0	0	0	0	FR3	0	R1236J
904.617	5.261	1146796	PROB	5.261	n/a	n/a	-999	0	8	[8, 3, 9]	20	0	0	0	n/a	n/a	0.0	0	0	0	FR3	0	R1236J
909.878	0.022	1152057	STOP	n/a	n/a	n/a	-999	0	8	[-999, -999, -999]	n/a	0	0	0	n/a	n/a	0.0	0	0	0	FR3	0	R1236J
909.9	0.518	1152079	DISTRACT_END	n/a	n/a	n/a	-999	0	8	[0, 0, 0]	n/a	0	0	0	n/a	n/a	0.0	0	0	0	FR3	0	R1236J
910.418	0.5	1152597	RETRIEVAL_ORIENT	n/a	n/a	n/a	-999	0	8	[0, 0, 0]	n/a	0	0	0	n/a	n/a	0.0	0	0	0	FR3	0	R1236J
910.934	1.406	1153113	REC_START	n/a	n/a	n/a	-999	0	8	[0, 0, 0]	n/a	0	0	0	n/a	n/a	0.0	0	0	0	FR3	0	R1236J
912.34	1.018	1154519	REC_WORD	1.406	n/a	ARK	6	1	8	[0, 0, 0]	n/a	0	0	0	n/a	n/a	0.0	0	0	0	FR3	0	R1236J
913.358	2.256	1155537	REC_WORD	2.424	n/a	SPARK	2	1	8	[0, 0, 0]	n/a	0	0	0	n/a	n/a	0.0	0	0	0	FR3	0	R1236J
915.614	1.17	1157793	REC_WORD	4.68	n/a	FACE	5	1	8	[0, 0, 0]	n/a	0	0	0	n/a	n/a	0.0	0	0	0	FR3	0	R1236J
916.784	2.093	1158963	REC_WORD	5.85	n/a	NOSE	4	1	8	[0, 0, 0]	n/a	0	0	0	n/a	n/a	0.0	0	0	0	FR3	0	R1236J
918.877	22.069	1161056	REC_WORD	7.943	n/a	ROSE	-999	0	8	[0, 0, 0]	n/a	0	0	0	n/a	n/a	0.0	0	0	0	FR3	0	R1236J
940.946	4.343	1183125	REC_END	n/a	n/a	n/a	-999	0	8	[0, 0, 0]	n/a	0	0	0	n/a	n/a	0.0	0	0	0	FR3	0	R1236J
945.289	0.5	1187468	TRIAL	n/a	n/a	n/a	-999	0	9	[0, 0, 0]	n/a	0	1	0	n/a	n/a	0.0	0	0	0	FR3	0	R1236J
945.789	10.0	1187968	COUNTDOWN_START	n/a	n/a	n/a	-999	0	9	[0, 0, 0]	n/a	0	1	0	n/a	n/a	0.0	0	0	0	FR3	0	R1236J
956.217	0.007	1198396	COUNTDOWN_END	n/a	n/a	n/a	-999	0	9	[0, 0, 0]	n/a	0	1	0	n/a	n/a	0.0	0	0	0	FR3	0	R1236J
956.224	1.6	1198403	ORIENT	n/a	n/a	n/a	-999	0	9	[0, 0, 0]	n/a	0	1	0	n/a	n/a	0.0	0	0	0	FR3	0	R1236J
957.84	1.867	1200019	ORIENT_OFF	n/a	n/a	n/a	-999	0	9	[0, 0, 0]	n/a	0	1	0	n/a	n/a	0.0	0	0	0	FR3	0	R1236J
959.707	1.6	1201886	WORD	n/a	wordpools/wordpool.txt	JEEP	1	0	9	[0, 0, 0]	n/a	0	1	0	n/a	n/a	0.0	0	0	0	FR3	0	R1236J
961.324	0.867	1203503	WORD_OFF	n/a	n/a	JEEP	1	0	9	[0, 0, 0]	n/a	0	1	0	n/a	n/a	0.0	0	0	0	FR3	0	R1236J
962.191	1.6	1204370	WORD	n/a	wordpools/wordpool.txt	THREAD	2	1	9	[0, 0, 0]	n/a	0	1	0	n/a	n/a	0.0	0	0	0	FR3	0	R1236J
963.808	0.833	1205987	WORD_OFF	n/a	n/a	THREAD	2	0	9	[0, 0, 0]	n/a	0	1	0	n/a	n/a	0.0	0	0	0	FR3	0	R1236J
964.641	1.6	1206820	WORD	n/a	wordpools/wordpool.txt	STEM	3	0	9	[0, 0, 0]	n/a	0	1	0	n/a	n/a	0.0	0	0	0	FR3	0	R1236J
966.258	0.03	1208437	WORD_OFF	n/a	n/a	STEM	3	0	9	[0, 0, 0]	n/a	0	1	0	n/a	n/a	0.0	0	0	0	FR3	0	R1236J
966.288	0.0	1208467	STIM_ON	n/a	n/a	n/a	3	0	9	[0, 0, 0]	n/a	1	1	500	LS4	LS5	500.0	100	50	300	FR3	0	R1236J
966.778	0.414	1208957	STIM_OFF	n/a	n/a	n/a	3	0	9	[0, 0, 0]	n/a	0	1	500	LS4	LS5	500.0	100	50	300	FR3	0	R1236J
967.192	1.6	1209371	WORD	n/a	wordpools/wordpool.txt	WORLD	4	0	9	[0, 0, 0]	n/a	0	1	0	n/a	n/a	0.0	0	0	0	FR3	0	R1236J
968.809	0.966	1210988	WORD_OFF	n/a	n/a	WORLD	4	0	9	[0, 0, 0]	n/a	0	1	0	n/a	n/a	0.0	0	0	0	FR3	0	R1236J
969.775	1.6	1211954	WORD	n/a	wordpools/wordpool.txt	MULE	5	0	9	[0, 0, 0]	n/a	0	1	0	n/a	n/a	0.0	0	0	0	FR3	0	R1236J
971.392	0.03	1213571	WORD_OFF	n/a	n/a	MULE	5	0	9	[0, 0, 0]	n/a	0	1	0	n/a	n/a	0.0	0	0	0	FR3	0	R1236J
971.422	0.0	1213601	STIM_ON	n/a	n/a	n/a	5	0	9	[0, 0, 0]	n/a	1	1	500	LS4	LS5	500.0	100	50	300	FR3	0	R1236J
971.912	0.381	1214091	STIM_OFF	n/a	n/a	n/a	5	0	9	[0, 0, 0]	n/a	0	1	500	LS4	LS5	500.0	100	50	300	FR3	0	R1236J
972.293	1.6	1214472	WORD	n/a	wordpools/wordpool.txt	VEST	6	0	9	[0, 0, 0]	n/a	0	1	0	n/a	n/a	0.0	0	0	0	FR3	0	R1236J
973.909	0.036	1216088	WORD_OFF	n/a	n/a	VEST	6	0	9	[0, 0, 0]	n/a	0	1	0	n/a	n/a	0.0	0	0	0	FR3	0	R1236J
973.945	0.0	1216124	STIM_ON	n/a	n/a	n/a	6	0	9	[0, 0, 0]	n/a	1	1	500	LS4	LS5	500.0	100	50	300	FR3	0	R1236J
974.435	0.324	1216614	STIM_OFF	n/a	n/a	n/a	6	0	9	[0, 0, 0]	n/a	0	1	500	LS4	LS5	500.0	100	50	300	FR3	0	R1236J
974.759	1.6	1216938	WORD	n/a	wordpools/wordpool.txt	WEB	7	0	9	[0, 0, 0]	n/a	0	1	0	n/a	n/a	0.0	0	0	0	FR3	0	R1236J
976.376	0.035	1218555	WORD_OFF	n/a	n/a	WEB	7	0	9	[0, 0, 0]	n/a	0	1	0	n/a	n/a	0.0	0	0	0	FR3	0	R1236J
976.411	0.0	1218590	STIM_ON	n/a	n/a	n/a	7	0	9	[0, 0, 0]	n/a	1	1	500	LS4	LS5	500.0	100	50	300	FR3	0	R1236J
976.901	0.342	1219080	STIM_OFF	n/a	n/a	n/a	7	0	9	[0, 0, 0]	n/a	0	1	500	LS4	LS5	500.0	100	50	300	FR3	0	R1236J
977.243	1.6	1219422	WORD	n/a	wordpools/wordpool.txt	INK	8	0	9	[0, 0, 0]	n/a	0	1	0	n/a	n/a	0.0	0	0	0	FR3	0	R1236J
978.859	0.029	1221038	WORD_OFF	n/a	n/a	INK	8	0	9	[0, 0, 0]	n/a	0	1	0	n/a	n/a	0.0	0	0	0	FR3	0	R1236J
978.888	0.0	1221067	STIM_ON	n/a	n/a	n/a	8	0	9	[0, 0, 0]	n/a	1	1	500	LS4	LS5	500.0	100	50	300	FR3	0	R1236J
979.378	0.382	1221557	STIM_OFF	n/a	n/a	n/a	8	0	9	[0, 0, 0]	n/a	0	1	500	LS4	LS5	500.0	100	50	300	FR3	0	R1236J
979.76	1.6	1221939	WORD	n/a	wordpools/wordpool.txt	LEAF	9	0	9	[0, 0, 0]	n/a	0	1	0	n/a	n/a	0.0	0	0	0	FR3	0	R1236J
981.377	0.766	1223556	WORD_OFF	n/a	n/a	LEAF	9	0	9	[0, 0, 0]	n/a	0	1	0	n/a	n/a	0.0	0	0	0	FR3	0	R1236J
982.143	1.6	1224322	WORD	n/a	wordpools/wordpool.txt	ROCK	10	1	9	[0, 0, 0]	n/a	0	1	0	n/a	n/a	0.0	0	0	0	FR3	0	R1236J
983.761	0.036	1225940	WORD_OFF	n/a	n/a	ROCK	10	0	9	[0, 0, 0]	n/a	0	1	0	n/a	n/a	0.0	0	0	0	FR3	0	R1236J
983.797	0.0	1225976	STIM_ON	n/a	n/a	n/a	10	0	9	[0, 0, 0]	n/a	1	1	500	LS4	LS5	500.0	100	50	300	FR3	0	R1236J
984.287	0.357	1226466	STIM_OFF	n/a	n/a	n/a	10	0	9	[0, 0, 0]	n/a	0	1	500	LS4	LS5	500.0	100	50	300	FR3	0	R1236J
984.644	1.6	1226823	WORD	n/a	wordpools/wordpool.txt	TOOTH	11	0	9	[0, 0, 0]	n/a	0	1	0	n/a	n/a	0.0	0	0	0	FR3	0	R1236J
986.261	0.041	1228440	WORD_OFF	n/a	n/a	TOOTH	11	0	9	[0, 0, 0]	n/a	0	1	0	n/a	n/a	0.0	0	0	0	FR3	0	R1236J
986.302	0.0	1228481	STIM_ON	n/a	n/a	n/a	11	0	9	[0, 0, 0]	n/a	1	1	500	LS4	LS5	500.0	100	50	300	FR3	0	R1236J
986.792	0.436	1228971	STIM_OFF	n/a	n/a	n/a	11	0	9	[0, 0, 0]	n/a	0	1	500	LS4	LS5	500.0	100	50	300	FR3	0	R1236J
987.228	1.6	1229407	WORD	n/a	wordpools/wordpool.txt	BLOOM	12	0	9	[0, 0, 0]	n/a	0	1	0	n/a	n/a	0.0	0	0	0	FR3	0	R1236J
988.845	0.0	1231024	WORD_OFF	n/a	n/a	BLOOM	12	0	9	[0, 0, 0]	n/a	0	1	0	n/a	n/a	0.0	0	0	0	FR3	0	R1236J
988.845	0.0	1231024	DISTRACT_START	n/a	n/a	n/a	-999	0	9	[0, 0, 0]	n/a	0	1	0	n/a	n/a	0.0	0	0	0	FR3	0	R1236J
988.845	0.015	1231024	START	n/a	n/a	n/a	-999	0	9	[-999, -999, -999]	n/a	0	1	0	n/a	n/a	0.0	0	0	0	FR3	0	R1236J
988.86	0.029	1231039	PROB	2.969	n/a	n/a	-999	0	9	[2, 7, 3]	12	0	1	0	n/a	n/a	0.0	0	0	0	FR3	0	R1236J
988.889	0.0	1231068	STIM_ON	n/a	n/a	n/a	-999	0	9	[0, 0, 0]	n/a	1	1	500	LS4	LS5	500.0	100	50	300	FR3	0	R1236J
989.379	2.482	1231558	STIM_OFF	n/a	n/a	n/a	-999	0	9	[0, 0, 0]	n/a	0	1	500	LS4	LS5	500.0	100	50	300	FR3	0	R1236J
991.861	2.834	1234040	PROB	2.799	n/a	n/a	-999	0	9	[6, 4, 8]	18	0	1	0	n/a	n/a	0.0	0	0	0	FR3	0	R1236J
994.695	2.967	1236874	PROB	2.932	n/a	n/a	-999	0	9	[3, 4, 2]	9	0	1	0	n/a	n/a	0.0	0	0	0	FR3	0	R1236J
997.662	4.551	1239841	PROB	4.526	n/a	n/a	-999	0	9	[9, 4, 7]	20	0	1	0	n/a	n/a	0.0	0	0	0	FR3	0	R1236J
1002.213	2.899	1244392	PROB	2.862	n/a	n/a	-999	0	9	[1, 8, 3]	12	0	1	0	n/a	n/a	0.0	0	0	0	FR3	0	R1236J
1005.112	3.668	1247291	PROB	3.635	n/a	n/a	-999	0	9	[1, 8, 6]	15	0	1	0	n/a	n/a	0.0	0	0	0	FR3	0	R1236J
1008.78	3.175	1250959	PROB	3.175	n/a	n/a	-999	0	9	[1, 4, 2]	7	0	1	0	n/a	n/a	0.0	0	0	0	FR3	0	R1236J
1011.955	0.008	1254134	STOP	n/a	n/a	n/a	-999	0	9	[-999, -999, -999]	n/a	0	1	0	n/a	n/a	0.0	0	0	0	FR3	0	R1236J
1011.963	0.635	1254142	DISTRACT_END	n/a	n/a	n/a	-999	0	9	[0, 0, 0]	n/a	0	1	0	n/a	n/a	0.0	0	0	0	FR3	0	R1236J
1012.598	0.5	1254777	RETRIEVAL_ORIENT	n/a	n/a	n/a	-999	0	9	[0, 0, 0]	n/a	0	1	0	n/a	n/a	0.0	0	0	0	FR3	0	R1236J
1013.114	0.85	1255293	REC_START	n/a	n/a	n/a	-999	0	9	[0, 0, 0]	n/a	0	1	0	n/a	n/a	0.0	0	0	0	FR3	0	R1236J
1013.964	3.727	1256143	REC_WORD	0.85	n/a	THREAD	2	1	9	[0, 0, 0]	n/a	0	1	0	n/a	n/a	0.0	0	0	0	FR3	0	R1236J
1017.691	5.985	1259870	REC_WORD	4.577	n/a	STRING	-999	0	9	[0, 0, 0]	n/a	0	1	0	n/a	n/a	0.0	0	0	0	FR3	0	R1236J
1023.676	19.448	1265855	REC_WORD	10.562	n/a	ROCK	10	1	9	[0, 0, 0]	n/a	0	1	0	n/a	n/a	0.0	0	0	0	FR3	0	R1236J
1043.124	4.711	1285303	REC_END	n/a	n/a	n/a	-999	0	9	[0, 0, 0]	n/a	0	1	0	n/a	n/a	0.0	0	0	0	FR3	0	R1236J
1047.835	0.5	1290014	TRIAL	n/a	n/a	n/a	-999	0	10	[0, 0, 0]	n/a	0	1	0	n/a	n/a	0.0	0	0	0	FR3	0	R1236J
1048.335	10.0	1290514	COUNTDOWN_START	n/a	n/a	n/a	-999	0	10	[0, 0, 0]	n/a	0	1	0	n/a	n/a	0.0	0	0	0	FR3	0	R1236J
1058.763	0.007	1300942	COUNTDOWN_END	n/a	n/a	n/a	-999	0	10	[0, 0, 0]	n/a	0	1	0	n/a	n/a	0.0	0	0	0	FR3	0	R1236J
1058.77	1.6	1300949	ORIENT	n/a	n/a	n/a	-999	0	10	[0, 0, 0]	n/a	0	1	0	n/a	n/a	0.0	0	0	0	FR3	0	R1236J
1060.387	2.05	1302566	ORIENT_OFF	n/a	n/a	n/a	-999	0	10	[0, 0, 0]	n/a	0	1	0	n/a	n/a	0.0	0	0	0	FR3	0	R1236J
1062.437	1.6	1304616	WORD	n/a	wordpools/wordpool.txt	MOOSE	1	1	10	[0, 0, 0]	n/a	0	1	0	n/a	n/a	0.0	0	0	0	FR3	0	R1236J
1064.053	0.867	1306232	WORD_OFF	n/a	n/a	MOOSE	1	0	10	[0, 0, 0]	n/a	0	1	0	n/a	n/a	0.0	0	0	0	FR3	0	R1236J
1064.92	1.6	1307099	WORD	n/a	wordpools/wordpool.txt	PET	2	0	10	[0, 0, 0]	n/a	0	1	0	n/a	n/a	0.0	0	0	0	FR3	0	R1236J
1066.521	0.85	1308700	WORD_OFF	n/a	n/a	PET	2	0	10	[0, 0, 0]	n/a	0	1	0	n/a	n/a	0.0	0	0	0	FR3	0	R1236J
1067.371	1.6	1309550	WORD	n/a	wordpools/wordpool.txt	STORE	3	1	10	[0, 0, 0]	n/a	0	1	0	n/a	n/a	0.0	0	0	0	FR3	0	R1236J
1068.987	0.036	1311166	WORD_OFF	n/a	n/a	STORE	3	0	10	[0, 0, 0]	n/a	0	1	0	n/a	n/a	0.0	0	0	0	FR3	0	R1236J
1069.023	0.0	1311202	STIM_ON	n/a	n/a	n/a	3	0	10	[0, 0, 0]	n/a	1	1	500	LS4	LS5	500.0	100	50	300	FR3	0	R1236J
1069.513	0.441	1311692	STIM_OFF	n/a	n/a	n/a	3	0	10	[0, 0, 0]	n/a	0	1	500	LS4	LS5	500.0	100	50	300	FR3	0	R1236J
1069.954	1.6	1312133	WORD	n/a	wordpools/wordpool.txt	SNAIL	4	1	10	[0, 0, 0]	n/a	0	1	0	n/a	n/a	0.0	0	0	0	FR3	0	R1236J
1071.572	0.95	1313751	WORD_OFF	n/a	n/a	SNAIL	4	0	10	[0, 0, 0]	n/a	0	1	0	n/a	n/a	0.0	0	0	0	FR3	0	R1236J
1072.522	1.6	1314701	WORD	n/a	wordpools/wordpool.txt	SAIL	5	0	10	[0, 0, 0]	n/a	0	1	0	n/a	n/a	0.0	0	0	0	FR3	0	R1236J
1074.138	0.85	1316317	WORD_OFF	n/a	n/a	SAIL	5	0	10	[0, 0, 0]	n/a	0	1	0	n/a	n/a	0.0	0	0	0	FR3	0	R1236J
1074.988	1.6	1317167	WORD	n/a	wordpools/wordpool.txt	SALT	6	1	10	[0, 0, 0]	n/a	0	1	0	n/a	n/a	0.0	0	0	0	FR3	0	R1236J
1076.606	0.866	1318785	WORD_OFF	n/a	n/a	SALT	6	0	10	[0, 0, 0]	n/a	0	1	0	n/a	n/a	0.0	0	0	0	FR3	0	R1236J
1077.472	1.6	1319651	WORD	n/a	wordpools/wordpool.txt	CASH	7	0	10	[0, 0, 0]	n/a	0	1	0	n/a	n/a	0.0	0	0	0	FR3	0	R1236J
1079.088	0.047	1321267	WORD_OFF	n/a	n/a	CASH	7	0	10	[0, 0, 0]	n/a	0	1	0	n/a	n/a	0.0	0	0	0	FR3	0	R1236J
1079.135	0.0	1321314	STIM_ON	n/a	n/a	n/a	7	0	10	[0, 0, 0]	n/a	1	1	500	LS4	LS5	500.0	100	50	300	FR3	0	R1236J
1079.625	0.447	1321804	STIM_OFF	n/a	n/a	n/a	7	0	10	[0, 0, 0]	n/a	0	1	500	LS4	LS5	500.0	100	50	300	FR3	0	R1236J
1080.072	1.6	1322251	WORD	n/a	wordpools/wordpool.txt	ANT	8	0	10	[0, 0, 0]	n/a	0	1	0	n/a	n/a	0.0	0	0	0	FR3	0	R1236J
1081.69	0.95	1323869	WORD_OFF	n/a	n/a	ANT	8	0	10	[0, 0, 0]	n/a	0	1	0	n/a	n/a	0.0	0	0	0	FR3	0	R1236J
1082.64	1.6	1324819	WORD	n/a	wordpools/wordpool.txt	STEAM	9	0	10	[0, 0, 0]	n/a	0	1	0	n/a	n/a	0.0	0	0	0	FR3	0	R1236J
1084.257	0.041	1326436	WORD_OFF	n/a	n/a	STEAM	9	0	10	[0, 0, 0]	n/a	0	1	0	n/a	n/a	0.0	0	0	0	FR3	0	R1236J
1084.298	0.0	1326477	STIM_ON	n/a	n/a	n/a	9	0	10	[0, 0, 0]	n/a	1	1	500	LS4	LS5	500.0	100	50	300	FR3	0	R1236J
1084.788	0.334	1326967	STIM_OFF	n/a	n/a	n/a	9	0	10	[0, 0, 0]	n/a	0	1	500	LS4	LS5	500.0	100	50	300	FR3	0	R1236J
1085.122	1.6	1327301	WORD	n/a	wordpools/wordpool.txt	WALL	10	0	10	[0, 0, 0]	n/a	0	1	0	n/a	n/a	0.0	0	0	0	FR3	0	R1236J
1086.74	0.05	1328919	WORD_OFF	n/a	n/a	WALL	10	0	10	[0, 0, 0]	n/a	0	1	0	n/a	n/a	0.0	0	0	0	FR3	0	R1236J
1086.79	0.0	1328969	STIM_ON	n/a	n/a	n/a	10	0	10	[0, 0, 0]	n/a	1	1	500	LS4	LS5	500.0	100	50	300	FR3	0	R1236J
1087.281	0.376	1329460	STIM_OFF	n/a	n/a	n/a	10	0	10	[0, 0, 0]	n/a	0	1	500	LS4	LS5	500.0	100	50	300	FR3	0	R1236J
1087.657	1.6	1329836	WORD	n/a	wordpools/wordpool.txt	SPONGE	11	0	10	[0, 0, 0]	n/a	0	1	0	n/a	n/a	0.0	0	0	0	FR3	0	R1236J
1089.274	0.051	1331453	WORD_OFF	n/a	n/a	SPONGE	11	0	10	[0, 0, 0]	n/a	0	1	0	n/a	n/a	0.0	0	0	0	FR3	0	R1236J
1089.325	0.0	1331504	STIM_ON	n/a	n/a	n/a	11	0	10	[0, 0, 0]	n/a	1	1	500	LS4	LS5	500.0	100	50	300	FR3	0	R1236J
1089.815	0.358	1331994	STIM_OFF	n/a	n/a	n/a	11	0	10	[0, 0, 0]	n/a	0	1	500	LS4	LS5	500.0	100	50	300	FR3	0	R1236J
1090.173	1.6	1332352	WORD	n/a	wordpools/wordpool.txt	FILM	12	0	10	[0, 0, 0]	n/a	0	1	0	n/a	n/a	0.0	0	0	0	FR3	0	R1236J
1091.791	0.0	1333970	WORD_OFF	n/a	n/a	FILM	12	0	10	[0, 0, 0]	n/a	0	1	0	n/a	n/a	0.0	0	0	0	FR3	0	R1236J
1091.791	0.001	1333970	DISTRACT_START	n/a	n/a	n/a	-999	0	10	[0, 0, 0]	n/a	0	1	0	n/a	n/a	0.0	0	0	0	FR3	0	R1236J
1091.792	0.016	1333971	START	n/a	n/a	n/a	-999	0	10	[-999, -999, -999]	n/a	0	1	0	n/a	n/a	0.0	0	0	0	FR3	0	R1236J
1091.808	0.028	1333987	PROB	3.551	n/a	n/a	-999	0	10	[3, 3, 6]	12	0	1	0	n/a	n/a	0.0	0	0	0	FR3	0	R1236J
1091.836	0.0	1334015	STIM_ON	n/a	n/a	n/a	-999	0	10	[0, 0, 0]	n/a	1	1	500	LS4	LS5	500.0	100	50	300	FR3	0	R1236J
1092.326	3.065	1334505	STIM_OFF	n/a	n/a	n/a	-999	0	10	[0, 0, 0]	n/a	0	1	500	LS4	LS5	500.0	100	50	300	FR3	0	R1236J
1095.391	2.783	1337570	PROB	2.752	n/a	n/a	-999	0	10	[1, 5, 9]	15	0	1	0	n/a	n/a	0.0	0	0	0	FR3	0	R1236J
1098.174	2.934	1340353	PROB	2.88	n/a	n/a	-999	0	10	[8, 6, 2]	16	0	1	0	n/a	n/a	0.0	0	0	0	FR3	0	R1236J
1101.108	2.718	1343287	PROB	2.691	n/a	n/a	-999	0	10	[2, 8, 6]	16	0	1	0	n/a	n/a	0.0	0	0	0	FR3	0	R1236J
1103.826	3.216	1346005	PROB	3.181	n/a	n/a	-999	0	10	[2, 3, 5]	10	0	1	0	n/a	n/a	0.0	0	0	0	FR3	0	R1236J
1107.042	3.917	1349221	PROB	3.892	n/a	n/a	-999	0	10	[4, 7, 4]	15	0	1	0	n/a	n/a	0.0	0	0	0	FR3	0	R1236J
1110.959	5.536	1353138	PROB	5.536	n/a	n/a	-999	0	10	[7, 2, 6]	15	0	1	0	n/a	n/a	0.0	0	0	0	FR3	0	R1236J
1116.495	0.016	1358674	STOP	n/a	n/a	n/a	-999	0	10	[-999, -999, -999]	n/a	0	1	0	n/a	n/a	0.0	0	0	0	FR3	0	R1236J
1116.511	0.616	1358690	DISTRACT_END	n/a	n/a	n/a	-999	0	10	[0, 0, 0]	n/a	0	1	0	n/a	n/a	0.0	0	0	0	FR3	0	R1236J
1117.127	0.5	1359306	RETRIEVAL_ORIENT	n/a	n/a	n/a	-999	0	10	[0, 0, 0]	n/a	0	1	0	n/a	n/a	0.0	0	0	0	FR3	0	R1236J
1117.645	0.754	1359824	REC_START	n/a	n/a	n/a	-999	0	10	[0, 0, 0]	n/a	0	1	0	n/a	n/a	0.0	0	0	0	FR3	0	R1236J
1118.399	2.532	1360578	REC_WORD	0.754	n/a	MOOSE	1	1	10	[0, 0, 0]	n/a	0	1	0	n/a	n/a	0.0	0	0	0	FR3	0	R1236J
1120.931	23.526	1363110	REC_WORD	3.286	n/a	SALT	6	1	10	[0, 0, 0]	n/a	0	1	0	n/a	n/a	0.0	0	0	0	FR3	0	R1236J
1144.457	2.795	1386636	REC_WORD	26.812	n/a	SNAIL	4	1	10	[0, 0, 0]	n/a	0	1	0	n/a	n/a	0.0	0	0	0	FR3	0	R1236J
1147.252	0.404	1389431	REC_WORD	29.607	n/a	STORE	3	1	10	[0, 0, 0]	n/a	0	1	0	n/a	n/a	0.0	0	0	0	FR3	0	R1236J
1147.656	4.626	1389835	REC_END	n/a	n/a	n/a	-999	0	10	[0, 0, 0]	n/a	0	1	0	n/a	n/a	0.0	0	0	0	FR3	0	R1236J
1152.282	0.5	1394461	TRIAL	n/a	n/a	n/a	-999	0	11	[0, 0, 0]	n/a	0	1	0	n/a	n/a	0.0	0	0	0	FR3	0	R1236J
1152.782	10.0	1394961	COUNTDOWN_START	n/a	n/a	n/a	-999	0	11	[0, 0, 0]	n/a	0	1	0	n/a	n/a	0.0	0	0	0	FR3	0	R1236J
1163.21	0.007	1405389	COUNTDOWN_END	n/a	n/a	n/a	-999	0	11	[0, 0, 0]	n/a	0	1	0	n/a	n/a	0.0	0	0	0	FR3	0	R1236J
1163.217	1.6	1405396	ORIENT	n/a	n/a	n/a	-999	0	11	[0, 0, 0]	n/a	0	1	0	n/a	n/a	0.0	0	0	0	FR3	0	R1236J
1164.834	2.166	1407013	ORIENT_OFF	n/a	n/a	n/a	-999	0	11	[0, 0, 0]	n/a	0	1	0	n/a	n/a	0.0	0	0	0	FR3	0	R1236J
1167.0	1.6	1409179	WORD	n/a	wordpools/wordpool.txt	BEE	1	1	11	[0, 0, 0]	n/a	0	1	0	n/a	n/a	0.0	0	0	0	FR3	0	R1236J
1168.618	0.049	1410797	WORD_OFF	n/a	n/a	BEE	1	0	11	[0, 0, 0]	n/a	0	1	0	n/a	n/a	0.0	0	0	0	FR3	0	R1236J
1168.667	0.0	1410846	STIM_ON	n/a	n/a	n/a	1	0	11	[0, 0, 0]	n/a	1	1	500	LS4	LS5	500.0	100	50	300	FR3	0	R1236J
1169.157	0.311	1411336	STIM_OFF	n/a	n/a	n/a	1	0	11	[0, 0, 0]	n/a	0	1	500	LS4	LS5	500.0	100	50	300	FR3	0	R1236J
1169.468	1.6	1411647	WORD	n/a	wordpools/wordpool.txt	HORSE	2	1	11	[0, 0, 0]	n/a	0	1	0	n/a	n/a	0.0	0	0	0	FR3	0	R1236J
1171.084	0.816	1413263	WORD_OFF	n/a	n/a	HORSE	2	0	11	[0, 0, 0]	n/a	0	1	0	n/a	n/a	0.0	0	0	0	FR3	0	R1236J
1171.9	1.6	1414079	WORD	n/a	wordpools/wordpool.txt	PEARL	3	1	11	[0, 0, 0]	n/a	0	1	0	n/a	n/a	0.0	0	0	0	FR3	0	R1236J
1173.518	0.767	1415697	WORD_OFF	n/a	n/a	PEARL	3	0	11	[0, 0, 0]	n/a	0	1	0	n/a	n/a	0.0	0	0	0	FR3	0	R1236J
1174.285	1.6	1416464	WORD	n/a	wordpools/wordpool.txt	CAKE	4	0	11	[0, 0, 0]	n/a	0	1	0	n/a	n/a	0.0	0	0	0	FR3	0	R1236J
1175.901	0.059	1418080	WORD_OFF	n/a	n/a	CAKE	4	0	11	[0, 0, 0]	n/a	0	1	0	n/a	n/a	0.0	0	0	0	FR3	0	R1236J
1175.96	0.0	1418139	STIM_ON	n/a	n/a	n/a	4	0	11	[0, 0, 0]	n/a	1	1	500	LS4	LS5	500.0	100	50	300	FR3	0	R1236J
1176.45	0.285	1418629	STIM_OFF	n/a	n/a	n/a	4	0	11	[0, 0, 0]	n/a	0	1	500	LS4	LS5	500.0	100	50	300	FR3	0	R1236J
1176.735	1.6	1418914	WORD	n/a	wordpools/wordpool.txt	SLEEVE	5	1	11	[0, 0, 0]	n/a	0	1	0	n/a	n/a	0.0	0	0	0	FR3	0	R1236J
1178.352	0.059	1420531	WORD_OFF	n/a	n/a	SLEEVE	5	0	11	[0, 0, 0]	n/a	0	1	0	n/a	n/a	0.0	0	0	0	FR3	0	R1236J
1178.411	0.0	1420590	STIM_ON	n/a	n/a	n/a	5	0	11	[0, 0, 0]	n/a	1	1	500	LS4	LS5	500.0	100	50	300	FR3	0	R1236J
1178.901	0.351	1421080	STIM_OFF	n/a	n/a	n/a	5	0	11	[0, 0, 0]	n/a	0	1	500	LS4	LS5	500.0	100	50	300	FR3	0	R1236J
1179.252	1.6	1421431	WORD	n/a	wordpools/wordpool.txt	PIN	6	0	11	[0, 0, 0]	n/a	0	1	0	n/a	n/a	0.0	0	0	0	FR3	0	R1236J
1180.868	0.054	1423047	WORD_OFF	n/a	n/a	PIN	6	0	11	[0, 0, 0]	n/a	0	1	0	n/a	n/a	0.0	0	0	0	FR3	0	R1236J
1180.922	0.0	1423101	STIM_ON	n/a	n/a	n/a	6	0	11	[0, 0, 0]	n/a	1	1	500	LS4	LS5	500.0	100	50	300	FR3	0	R1236J
1181.412	0.224	1423591	STIM_OFF	n/a	n/a	n/a	6	0	11	[0, 0, 0]	n/a	0	1	500	LS4	LS5	500.0	100	50	300	FR3	0	R1236J
1181.636	1.6	1423815	WORD	n/a	wordpools/wordpool.txt	NET	7	1	11	[0, 0, 0]	n/a	0	1	0	n/a	n/a	0.0	0	0	0	FR3	0	R1236J
1183.252	0.06	1425431	WORD_OFF	n/a	n/a	NET	7	0	11	[0, 0, 0]	n/a	0	1	0	n/a	n/a	0.0	0	0	0	FR3	0	R1236J
1183.312	0.0	1425491	STIM_ON	n/a	n/a	n/a	7	0	11	[0, 0, 0]	n/a	1	1	500	LS4	LS5	500.0	100	50	300	FR3	0	R1236J
1183.802	0.333	1425981	STIM_OFF	n/a	n/a	n/a	7	0	11	[0, 0, 0]	n/a	0	1	500	LS4	LS5	500.0	100	50	300	FR3	0	R1236J
1184.135	1.6	1426314	WORD	n/a	wordpools/wordpool.txt	PEA	8	0	11	[0, 0, 0]	n/a	0	1	0	n/a	n/a	0.0	0	0	0	FR3	0	R1236J
1185.736	0.074	1427915	WORD_OFF	n/a	n/a	PEA	8	0	11	[0, 0, 0]	n/a	0	1	0	n/a	n/a	0.0	0	0	0	FR3	0	R1236J
1185.81	0.0	1427989	STIM_ON	n/a	n/a	n/a	8	0	11	[0, 0, 0]	n/a	1	1	500	LS4	LS5	500.0	100	50	300	FR3	0	R1236J
1186.3	0.203	1428479	STIM_OFF	n/a	n/a	n/a	8	0	11	[0, 0, 0]	n/a	0	1	500	LS4	LS5	500.0	100	50	300	FR3	0	R1236J
1186.503	1.6	1428682	WORD	n/a	wordpools/wordpool.txt	POLE	9	1	11	[0, 0, 0]	n/a	0	1	0	n/a	n/a	0.0	0	0	0	FR3	0	R1236J
1188.119	0.917	1430298	WORD_OFF	n/a	n/a	POLE	9	0	11	[0, 0, 0]	n/a	0	1	0	n/a	n/a	0.0	0	0	0	FR3	0	R1236J
1189.036	1.6	1431215	WORD	n/a	wordpools/wordpool.txt	RAT	10	1	11	[0, 0, 0]	n/a	0	1	0	n/a	n/a	0.0	0	0	0	FR3	0	R1236J
1190.654	0.8	1432833	WORD_OFF	n/a	n/a	RAT	10	0	11	[0, 0, 0]	n/a	0	1	0	n/a	n/a	0.0	0	0	0	FR3	0	R1236J
1191.454	1.6	1433633	WORD	n/a	wordpools/wordpool.txt	GLASS	11	0	11	[0, 0, 0]	n/a	0	1	0	n/a	n/a	0.0	0	0	0	FR3	0	R1236J
1193.07	0.883	1435249	WORD_OFF	n/a	n/a	GLASS	11	0	11	[0, 0, 0]	n/a	0	1	0	n/a	n/a	0.0	0	0	0	FR3	0	R1236J
1193.953	1.6	1436132	WORD	n/a	wordpools/wordpool.txt	BEAR	12	0	11	[0, 0, 0]	n/a	0	1	0	n/a	n/a	0.0	0	0	0	FR3	0	R1236J
1195.571	0.0	1437750	WORD_OFF	n/a	n/a	BEAR	12	0	11	[0, 0, 0]	n/a	0	1	0	n/a	n/a	0.0	0	0	0	FR3	0	R1236J
1195.571	0.0	1437750	DISTRACT_START	n/a	n/a	n/a	-999	0	11	[0, 0, 0]	n/a	0	1	0	n/a	n/a	0.0	0	0	0	FR3	0	R1236J
1195.571	0.017	1437750	START	n/a	n/a	n/a	-999	0	11	[-999, -999, -999]	n/a	0	1	0	n/a	n/a	0.0	0	0	0	FR3	0	R1236J
1195.588	0.044	1437767	PROB	3.566	n/a	n/a	-999	0	11	[2, 7, 6]	15	0	1	0	n/a	n/a	0.0	0	0	0	FR3	0	R1236J
1195.632	0.0	1437811	STIM_ON	n/a	n/a	n/a	-999	0	11	[0, 0, 0]	n/a	1	1	500	LS4	LS5	500.0	100	50	300	FR3	0	R1236J
1196.122	3.066	1438301	STIM_OFF	n/a	n/a	n/a	-999	0	11	[0, 0, 0]	n/a	0	1	500	LS4	LS5	500.0	100	50	300	FR3	0	R1236J
1199.188	3.201	1441367	PROB	3.176	n/a	n/a	-999	0	11	[3, 7, 6]	16	0	1	0	n/a	n/a	0.0	0	0	0	FR3	0	R1236J
1202.389	3.183	1444568	PROB	3.15	n/a	n/a	-999	0	11	[6, 4, 2]	12	0	1	0	n/a	n/a	0.0	0	0	0	FR3	0	R1236J
1205.572	2.834	1447751	PROB	2.799	n/a	n/a	-999	0	11	[8, 3, 7]	18	0	1	0	n/a	n/a	0.0	0	0	0	FR3	0	R1236J
1208.406	2.716	1450585	PROB	2.685	n/a	n/a	-999	0	11	[1, 7, 4]	12	0	1	0	n/a	n/a	0.0	0	0	0	FR3	0	R1236J
1211.122	3.451	1453301	PROB	3.424	n/a	n/a	-999	0	11	[4, 7, 1]	12	0	1	0	n/a	n/a	0.0	0	0	0	FR3	0	R1236J
1214.573	3.452	1456752	PROB	3.452	n/a	n/a	-999	0	11	[8, 6, 1]	15	0	1	0	n/a	n/a	0.0	0	0	0	FR3	0	R1236J
1218.025	0.015	1460204	STOP	n/a	n/a	n/a	-999	0	11	[-999, -999, -999]	n/a	0	1	0	n/a	n/a	0.0	0	0	0	FR3	0	R1236J
1218.04	0.517	1460219	DISTRACT_END	n/a	n/a	n/a	-999	0	11	[0, 0, 0]	n/a	0	1	0	n/a	n/a	0.0	0	0	0	FR3	0	R1236J
1218.557	0.5	1460736	RETRIEVAL_ORIENT	n/a	n/a	n/a	-999	0	11	[0, 0, 0]	n/a	0	1	0	n/a	n/a	0.0	0	0	0	FR3	0	R1236J
1219.074	0.844	1461253	REC_START	n/a	n/a	n/a	-999	0	11	[0, 0, 0]	n/a	0	1	0	n/a	n/a	0.0	0	0	0	FR3	0	R1236J
1219.918	1.349	1462097	REC_WORD	0.844	n/a	PEARL	3	1	11	[0, 0, 0]	n/a	0	1	0	n/a	n/a	0.0	0	0	0	FR3	0	R1236J
1221.267	1.229	1463446	REC_WORD	2.193	n/a	POLE	9	1	11	[0, 0, 0]	n/a	0	1	0	n/a	n/a	0.0	0	0	0	FR3	0	R1236J
1222.496	1.175	1464675	REC_WORD	3.422	n/a	RAT	10	1	11	[0, 0, 0]	n/a	0	1	0	n/a	n/a	0.0	0	0	0	FR3	0	R1236J
1223.671	1.311	1465850	REC_WORD	4.597	n/a	HORSE	2	1	11	[0, 0, 0]	n/a	0	1	0	n/a	n/a	0.0	0	0	0	FR3	0	R1236J
1224.982	1.319	1467161	REC_WORD	5.908	n/a	BEE	1	1	11	[0, 0, 0]	n/a	0	1	0	n/a	n/a	0.0	0	0	0	FR3	0	R1236J
1226.301	6.85	1468480	REC_WORD	7.227	n/a	NET	7	1	11	[0, 0, 0]	n/a	0	1	0	n/a	n/a	0.0	0	0	0	FR3	0	R1236J
1233.151	15.934	1475330	REC_WORD	14.077	n/a	SLEEVE	5	1	11	[0, 0, 0]	n/a	0	1	0	n/a	n/a	0.0	0	0	0	FR3	0	R1236J
1249.085	4.51	1491265	REC_END	n/a	n/a	n/a	-999	0	11	[0, 0, 0]	n/a	0	1	0	n/a	n/a	0.0	0	0	0	FR3	0	R1236J
1253.595	0.5	1495775	TRIAL	n/a	n/a	n/a	-999	0	12	[0, 0, 0]	n/a	0	1	0	n/a	n/a	0.0	0	0	0	FR3	0	R1236J
1254.095	10.0	1496275	COUNTDOWN_START	n/a	n/a	n/a	-999	0	12	[0, 0, 0]	n/a	0	1	0	n/a	n/a	0.0	0	0	0	FR3	0	R1236J
1264.523	0.007	1506703	COUNTDOWN_END	n/a	n/a	n/a	-999	0	12	[0, 0, 0]	n/a	0	1	0	n/a	n/a	0.0	0	0	0	FR3	0	R1236J
1264.53	1.6	1506710	ORIENT	n/a	n/a	n/a	-999	0	12	[0, 0, 0]	n/a	0	1	0	n/a	n/a	0.0	0	0	0	FR3	0	R1236J
1266.146	2.101	1508326	ORIENT_OFF	n/a	n/a	n/a	-999	0	12	[0, 0, 0]	n/a	0	1	0	n/a	n/a	0.0	0	0	0	FR3	0	R1236J
1268.247	1.6	1510427	WORD	n/a	wordpools/wordpool.txt	JUICE	1	1	12	[0, 0, 0]	n/a	0	1	0	n/a	n/a	0.0	0	0	0	FR3	0	R1236J
1269.863	0.984	1512043	WORD_OFF	n/a	n/a	JUICE	1	0	12	[0, 0, 0]	n/a	0	1	0	n/a	n/a	0.0	0	0	0	FR3	0	R1236J
1270.847	1.6	1513027	WORD	n/a	wordpools/wordpool.txt	LAND	2	1	12	[0, 0, 0]	n/a	0	1	0	n/a	n/a	0.0	0	0	0	FR3	0	R1236J
1272.464	0.064	1514644	WORD_OFF	n/a	n/a	LAND	2	0	12	[0, 0, 0]	n/a	0	1	0	n/a	n/a	0.0	0	0	0	FR3	0	R1236J
1272.528	0.0	1514708	STIM_ON	n/a	n/a	n/a	2	0	12	[0, 0, 0]	n/a	1	1	500	LS4	LS5	500.0	100	50	300	FR3	0	R1236J
1273.018	0.43	1515198	STIM_OFF	n/a	n/a	n/a	2	0	12	[0, 0, 0]	n/a	0	1	500	LS4	LS5	500.0	100	50	300	FR3	0	R1236J
1273.448	1.6	1515628	WORD	n/a	wordpools/wordpool.txt	CAT	3	1	12	[0, 0, 0]	n/a	0	1	0	n/a	n/a	0.0	0	0	0	FR3	0	R1236J
1275.063	0.8	1517243	WORD_OFF	n/a	n/a	CAT	3	0	12	[0, 0, 0]	n/a	0	1	0	n/a	n/a	0.0	0	0	0	FR3	0	R1236J
1275.863	1.6	1518043	WORD	n/a	wordpools/wordpool.txt	JAR	4	1	12	[0, 0, 0]	n/a	0	1	0	n/a	n/a	0.0	0	0	0	FR3	0	R1236J
1277.481	0.951	1519661	WORD_OFF	n/a	n/a	JAR	4	0	12	[0, 0, 0]	n/a	0	1	0	n/a	n/a	0.0	0	0	0	FR3	0	R1236J
1278.432	1.6	1520612	WORD	n/a	wordpools/wordpool.txt	FUR	5	1	12	[0, 0, 0]	n/a	0	1	0	n/a	n/a	0.0	0	0	0	FR3	0	R1236J
1280.048	0.833	1522228	WORD_OFF	n/a	n/a	FUR	5	0	12	[0, 0, 0]	n/a	0	1	0	n/a	n/a	0.0	0	0	0	FR3	0	R1236J
1280.881	1.6	1523061	WORD	n/a	wordpools/wordpool.txt	TEETH	6	1	12	[0, 0, 0]	n/a	0	1	0	n/a	n/a	0.0	0	0	0	FR3	0	R1236J
1282.499	0.933	1524679	WORD_OFF	n/a	n/a	TEETH	6	0	12	[0, 0, 0]	n/a	0	1	0	n/a	n/a	0.0	0	0	0	FR3	0	R1236J
1283.432	1.6	1525612	WORD	n/a	wordpools/wordpool.txt	EAR	7	1	12	[0, 0, 0]	n/a	0	1	0	n/a	n/a	0.0	0	0	0	FR3	0	R1236J
1285.048	0.073	1527228	WORD_OFF	n/a	n/a	EAR	7	0	12	[0, 0, 0]	n/a	0	1	0	n/a	n/a	0.0	0	0	0	FR3	0	R1236J
1285.121	0.0	1527301	STIM_ON	n/a	n/a	n/a	7	0	12	[0, 0, 0]	n/a	1	1	500	LS4	LS5	500.0	100	50	300	FR3	0	R1236J
1285.611	0.304	1527791	STIM_OFF	n/a	n/a	n/a	7	0	12	[0, 0, 0]	n/a	0	1	500	LS4	LS5	500.0	100	50	300	FR3	0	R1236J
1285.915	1.6	1528095	WORD	n/a	wordpools/wordpool.txt	FLUTE	8	0	12	[0, 0, 0]	n/a	0	1	0	n/a	n/a	0.0	0	0	0	FR3	0	R1236J
1287.533	0.933	1529713	WORD_OFF	n/a	n/a	FLUTE	8	0	12	[0, 0, 0]	n/a	0	1	0	n/a	n/a	0.0	0	0	0	FR3	0	R1236J
1288.466	1.6	1530646	WORD	n/a	wordpools/wordpool.txt	ROOM	9	0	12	[0, 0, 0]	n/a	0	1	0	n/a	n/a	0.0	0	0	0	FR3	0	R1236J
1290.082	0.934	1532262	WORD_OFF	n/a	n/a	ROOM	9	0	12	[0, 0, 0]	n/a	0	1	0	n/a	n/a	0.0	0	0	0	FR3	0	R1236J
1291.016	1.6	1533196	WORD	n/a	wordpools/wordpool.txt	COIN	10	0	12	[0, 0, 0]	n/a	0	1	0	n/a	n/a	0.0	0	0	0	FR3	0	R1236J
1292.634	0.076	1534814	WORD_OFF	n/a	n/a	COIN	10	0	12	[0, 0, 0]	n/a	0	1	0	n/a	n/a	0.0	0	0	0	FR3	0	R1236J
1292.71	0.0	1534890	STIM_ON	n/a	n/a	n/a	10	0	12	[0, 0, 0]	n/a	1	1	500	LS4	LS5	500.0	100	50	300	FR3	0	R1236J
1293.2	0.4	1535380	STIM_OFF	n/a	n/a	n/a	10	0	12	[0, 0, 0]	n/a	0	1	500	LS4	LS5	500.0	100	50	300	FR3	0	R1236J
1293.6	1.6	1535780	WORD	n/a	wordpools/wordpool.txt	HEART	11	1	12	[0, 0, 0]	n/a	0	1	0	n/a	n/a	0.0	0	0	0	FR3	0	R1236J
1295.217	1.017	1537397	WORD_OFF	n/a	n/a	HEART	11	0	12	[0, 0, 0]	n/a	0	1	0	n/a	n/a	0.0	0	0	0	FR3	0	R1236J
1296.234	1.6	1538414	WORD	n/a	wordpools/wordpool.txt	SHOE	12	0	12	[0, 0, 0]	n/a	0	1	0	n/a	n/a	0.0	0	0	0	FR3	0	R1236J
1297.851	0.0	1540031	WORD_OFF	n/a	n/a	SHOE	12	0	12	[0, 0, 0]	n/a	0	1	0	n/a	n/a	0.0	0	0	0	FR3	0	R1236J
1297.851	0.0	1540031	DISTRACT_START	n/a	n/a	n/a	-999	0	12	[0, 0, 0]	n/a	0	1	0	n/a	n/a	0.0	0	0	0	FR3	0	R1236J
1297.851	0.015	1540031	START	n/a	n/a	n/a	-999	0	12	[-999, -999, -999]	n/a	0	1	0	n/a	n/a	0.0	0	0	0	FR3	0	R1236J
1297.866	0.07	1540046	PROB	3.164	n/a	n/a	-999	0	12	[2, 3, 8]	13	0	1	0	n/a	n/a	0.0	0	0	0	FR3	0	R1236J
1297.936	0.0	1540116	STIM_ON	n/a	n/a	n/a	-999	0	12	[0, 0, 0]	n/a	1	1	500	LS4	LS5	500.0	100	50	300	FR3	0	R1236J
1298.426	2.641	1540606	STIM_OFF	n/a	n/a	n/a	-999	0	12	[0, 0, 0]	n/a	0	1	500	LS4	LS5	500.0	100	50	300	FR3	0	R1236J
1301.067	2.768	1543247	PROB	2.732	n/a	n/a	-999	0	12	[8, 7, 2]	17	0	1	0	n/a	n/a	0.0	0	0	0	FR3	0	R1236J
1303.835	3.049	1546015	PROB	3.012	n/a	n/a	-999	0	12	[2, 7, 5]	14	0	1	0	n/a	n/a	0.0	0	0	0	FR3	0	R1236J
1306.884	3.051	1549064	PROB	3.025	n/a	n/a	-999	0	12	[7, 1, 2]	10	0	1	0	n/a	n/a	0.0	0	0	0	FR3	0	R1236J
1309.935	2.684	1552115	PROB	2.647	n/a	n/a	-999	0	12	[1, 1, 2]	4	0	1	0	n/a	n/a	0.0	0	0	0	FR3	0	R1236J
1312.619	4.951	1554799	PROB	4.914	n/a	n/a	-999	0	12	[4, 8, 6]	28	0	1	0	n/a	n/a	0.0	0	0	0	FR3	0	R1236J
1317.57	3.147	1559750	PROB	3.147	n/a	n/a	-999	0	12	[5, 5, 3]	13	0	1	0	n/a	n/a	0.0	0	0	0	FR3	0	R1236J
1320.717	0.02	1562897	STOP	n/a	n/a	n/a	-999	0	12	[-999, -999, -999]	n/a	0	1	0	n/a	n/a	0.0	0	0	0	FR3	0	R1236J
1320.737	0.533	1562917	DISTRACT_END	n/a	n/a	n/a	-999	0	12	[0, 0, 0]	n/a	0	1	0	n/a	n/a	0.0	0	0	0	FR3	0	R1236J
1321.27	0.5	1563450	RETRIEVAL_ORIENT	n/a	n/a	n/a	-999	0	12	[0, 0, 0]	n/a	0	1	0	n/a	n/a	0.0	0	0	0	FR3	0	R1236J
1321.788	1.793	1563968	REC_START	n/a	n/a	n/a	-999	0	12	[0, 0, 0]	n/a	0	1	0	n/a	n/a	0.0	0	0	0	FR3	0	R1236J
1323.581	0.474	1565761	REC_WORD_VV	1.793	n/a	<>	-999	0	12	[0, 0, 0]	n/a	0	1	0	n/a	n/a	0.0	0	0	0	FR3	0	R1236J
1324.055	1.13	1566235	REC_WORD	2.267	n/a	HEART	11	1	12	[0, 0, 0]	n/a	0	1	0	n/a	n/a	0.0	0	0	0	FR3	0	R1236J
1325.185	1.02	1567365	REC_WORD	3.397	n/a	EAR	7	1	12	[0, 0, 0]	n/a	0	1	0	n/a	n/a	0.0	0	0	0	FR3	0	R1236J
1326.205	0.944	1568385	REC_WORD	4.417	n/a	CAT	3	1	12	[0, 0, 0]	n/a	0	1	0	n/a	n/a	0.0	0	0	0	FR3	0	R1236J
1327.149	1.33	1569329	REC_WORD	5.361	n/a	FUR	5	1	12	[0, 0, 0]	n/a	0	1	0	n/a	n/a	0.0	0	0	0	FR3	0	R1236J
1328.479	3.508	1570659	REC_WORD	6.691	n/a	TEETH	6	1	12	[0, 0, 0]	n/a	0	1	0	n/a	n/a	0.0	0	0	0	FR3	0	R1236J
1331.987	1.133	1574167	REC_WORD	10.199	n/a	JUICE	1	1	12	[0, 0, 0]	n/a	0	1	0	n/a	n/a	0.0	0	0	0	FR3	0	R1236J
1333.12	9.183	1575300	REC_WORD	11.332	n/a	JAR	4	1	12	[0, 0, 0]	n/a	0	1	0	n/a	n/a	0.0	0	0	0	FR3	0	R1236J
1342.303	9.497	1584483	REC_WORD	20.515	n/a	LAND	2	1	12	[0, 0, 0]	n/a	0	1	0	n/a	n/a	0.0	0	0	0	FR3	0	R1236J
1351.8	4.391	1593980	REC_END	n/a	n/a	n/a	-999	0	12	[0, 0, 0]	n/a	0	1	0	n/a	n/a	0.0	0	0	0	FR3	0	R1236J
1356.191	0.5	1598371	TRIAL	n/a	n/a	n/a	-999	0	13	[0, 0, 0]	n/a	0	0	0	n/a	n/a	0.0	0	0	0	FR3	0	R1236J
1356.691	10.0	1598871	COUNTDOWN_START	n/a	n/a	n/a	-999	0	13	[0, 0, 0]	n/a	0	0	0	n/a	n/a	0.0	0	0	0	FR3	0	R1236J
1367.119	0.006	1609299	COUNTDOWN_END	n/a	n/a	n/a	-999	0	13	[0, 0, 0]	n/a	0	0	0	n/a	n/a	0.0	0	0	0	FR3	0	R1236J
1367.125	1.6	1609305	ORIENT	n/a	n/a	n/a	-999	0	13	[0, 0, 0]	n/a	0	0	0	n/a	n/a	0.0	0	0	0	FR3	0	R1236J
1368.743	2.084	1610923	ORIENT_OFF	n/a	n/a	n/a	-999	0	13	[0, 0, 0]	n/a	0	0	0	n/a	n/a	0.0	0	0	0	FR3	0	R1236J
1370.827	1.6	1613007	WORD	n/a	wordpools/wordpool.txt	BATH	1	1	13	[0, 0, 0]	n/a	0	0	0	n/a	n/a	0.0	0	0	0	FR3	0	R1236J
1372.444	0.983	1614624	WORD_OFF	n/a	n/a	BATH	1	0	13	[0, 0, 0]	n/a	0	0	0	n/a	n/a	0.0	0	0	0	FR3	0	R1236J
1373.427	1.6	1615607	WORD	n/a	wordpools/wordpool.txt	TIE	2	1	13	[0, 0, 0]	n/a	0	0	0	n/a	n/a	0.0	0	0	0	FR3	0	R1236J
1375.043	0.85	1617223	WORD_OFF	n/a	n/a	TIE	2	0	13	[0, 0, 0]	n/a	0	0	0	n/a	n/a	0.0	0	0	0	FR3	0	R1236J
1375.893	1.6	1618073	WORD	n/a	wordpools/wordpool.txt	BAND	3	1	13	[0, 0, 0]	n/a	0	0	0	n/a	n/a	0.0	0	0	0	FR3	0	R1236J
1377.511	0.983	1619691	WORD_OFF	n/a	n/a	BAND	3	0	13	[0, 0, 0]	n/a	0	0	0	n/a	n/a	0.0	0	0	0	FR3	0	R1236J
1378.494	1.6	1620674	WORD	n/a	wordpools/wordpool.txt	STOOL	4	1	13	[0, 0, 0]	n/a	0	0	0	n/a	n/a	0.0	0	0	0	FR3	0	R1236J
1380.11	0.984	1622290	WORD_OFF	n/a	n/a	STOOL	4	0	13	[0, 0, 0]	n/a	0	0	0	n/a	n/a	0.0	0	0	0	FR3	0	R1236J
1381.094	1.6	1623274	WORD	n/a	wordpools/wordpool.txt	HAND	5	0	13	[0, 0, 0]	n/a	0	0	0	n/a	n/a	0.0	0	0	0	FR3	0	R1236J
1382.711	0.867	1624891	WORD_OFF	n/a	n/a	HAND	5	0	13	[0, 0, 0]	n/a	0	0	0	n/a	n/a	0.0	0	0	0	FR3	0	R1236J
1383.578	1.6	1625758	WORD	n/a	wordpools/wordpool.txt	CLAY	6	0	13	[0, 0, 0]	n/a	0	0	0	n/a	n/a	0.0	0	0	0	FR3	0	R1236J
1385.195	0.866	1627375	WORD_OFF	n/a	n/a	CLAY	6	0	13	[0, 0, 0]	n/a	0	0	0	n/a	n/a	0.0	0	0	0	FR3	0	R1236J
1386.061	1.6	1628241	WORD	n/a	wordpools/wordpool.txt	HOOK	7	0	13	[0, 0, 0]	n/a	0	0	0	n/a	n/a	0.0	0	0	0	FR3	0	R1236J
1387.679	0.783	1629859	WORD_OFF	n/a	n/a	HOOK	7	0	13	[0, 0, 0]	n/a	0	0	0	n/a	n/a	0.0	0	0	0	FR3	0	R1236J
1388.462	1.6	1630642	WORD	n/a	wordpools/wordpool.txt	SUIT	8	0	13	[0, 0, 0]	n/a	0	0	0	n/a	n/a	0.0	0	0	0	FR3	0	R1236J
1390.078	0.783	1632258	WORD_OFF	n/a	n/a	SUIT	8	0	13	[0, 0, 0]	n/a	0	0	0	n/a	n/a	0.0	0	0	0	FR3	0	R1236J
1390.861	1.6	1633041	WORD	n/a	wordpools/wordpool.txt	VINE	9	0	13	[0, 0, 0]	n/a	0	0	0	n/a	n/a	0.0	0	0	0	FR3	0	R1236J
1392.479	0.834	1634659	WORD_OFF	n/a	n/a	VINE	9	0	13	[0, 0, 0]	n/a	0	0	0	n/a	n/a	0.0	0	0	0	FR3	0	R1236J
1393.313	1.6	1635493	WORD	n/a	wordpools/wordpool.txt	LOCK	10	0	13	[0, 0, 0]	n/a	0	0	0	n/a	n/a	0.0	0	0	0	FR3	0	R1236J
1394.929	0.95	1637109	WORD_OFF	n/a	n/a	LOCK	10	0	13	[0, 0, 0]	n/a	0	0	0	n/a	n/a	0.0	0	0	0	FR3	0	R1236J
1395.879	1.6	1638059	WORD	n/a	wordpools/wordpool.txt	CAGE	11	0	13	[0, 0, 0]	n/a	0	0	0	n/a	n/a	0.0	0	0	0	FR3	0	R1236J
1397.48	0.934	1639660	WORD_OFF	n/a	n/a	CAGE	11	0	13	[0, 0, 0]	n/a	0	0	0	n/a	n/a	0.0	0	0	0	FR3	0	R1236J
1398.414	1.6	1640594	WORD	n/a	wordpools/wordpool.txt	OAR	12	1	13	[0, 0, 0]	n/a	0	0	0	n/a	n/a	0.0	0	0	0	FR3	0	R1236J
1400.03	0.0	1642210	WORD_OFF	n/a	n/a	OAR	12	0	13	[0, 0, 0]	n/a	0	0	0	n/a	n/a	0.0	0	0	0	FR3	0	R1236J
1400.03	0.0	1642210	DISTRACT_START	n/a	n/a	n/a	-999	0	13	[0, 0, 0]	n/a	0	0	0	n/a	n/a	0.0	0	0	0	FR3	0	R1236J
1400.03	0.016	1642210	START	n/a	n/a	n/a	-999	0	13	[-999, -999, -999]	n/a	0	0	0	n/a	n/a	0.0	0	0	0	FR3	0	R1236J
1400.046	3.202	1642226	PROB	3.173	n/a	n/a	-999	0	13	[1, 8, 1]	10	0	0	0	n/a	n/a	0.0	0	0	0	FR3	0	R1236J
1403.248	3.567	1645428	PROB	3.531	n/a	n/a	-999	0	13	[9, 5, 4]	18	0	0	0	n/a	n/a	0.0	0	0	0	FR3	0	R1236J
1406.815	3.133	1648995	PROB	3.107	n/a	n/a	-999	0	13	[5, 8, 4]	17	0	0	0	n/a	n/a	0.0	0	0	0	FR3	0	R1236J
1409.948	3.15	1652128	PROB	3.117	n/a	n/a	-999	0	13	[9, 2, 1]	12	0	0	0	n/a	n/a	0.0	0	0	0	FR3	0	R1236J
1413.098	4.451	1655278	PROB	4.417	n/a	n/a	-999	0	13	[8, 8, 9]	25	0	0	0	n/a	n/a	0.0	0	0	0	FR3	0	R1236J
1417.549	3.077	1659729	PROB	3.077	n/a	n/a	-999	0	13	[2, 3, 6]	11	0	0	0	n/a	n/a	0.0	0	0	0	FR3	0	R1236J
1420.626	0.007	1662806	STOP	n/a	n/a	n/a	-999	0	13	[-999, -999, -999]	n/a	0	0	0	n/a	n/a	0.0	0	0	0	FR3	0	R1236J
1420.633	0.55	1662813	DISTRACT_END	n/a	n/a	n/a	-999	0	13	[0, 0, 0]	n/a	0	0	0	n/a	n/a	0.0	0	0	0	FR3	0	R1236J
1421.183	0.5	1663363	RETRIEVAL_ORIENT	n/a	n/a	n/a	-999	0	13	[0, 0, 0]	n/a	0	0	0	n/a	n/a	0.0	0	0	0	FR3	0	R1236J
1421.701	1.011	1663881	REC_START	n/a	n/a	n/a	-999	0	13	[0, 0, 0]	n/a	0	0	0	n/a	n/a	0.0	0	0	0	FR3	0	R1236J
1422.712	2.39	1664892	REC_WORD	1.011	n/a	OAR	12	1	13	[0, 0, 0]	n/a	0	0	0	n/a	n/a	0.0	0	0	0	FR3	0	R1236J
1425.102	2.073	1667282	REC_WORD	3.401	n/a	TIE	2	1	13	[0, 0, 0]	n/a	0	0	0	n/a	n/a	0.0	0	0	0	FR3	0	R1236J
1427.175	1.862	1669355	REC_WORD	5.474	n/a	BATH	1	1	13	[0, 0, 0]	n/a	0	0	0	n/a	n/a	0.0	0	0	0	FR3	0	R1236J
1429.037	2.051	1671217	REC_WORD	7.336	n/a	BAND	3	1	13	[0, 0, 0]	n/a	0	0	0	n/a	n/a	0.0	0	0	0	FR3	0	R1236J
1431.088	20.625	1673268	REC_WORD	9.387	n/a	STOOL	4	1	13	[0, 0, 0]	n/a	0	0	0	n/a	n/a	0.0	0	0	0	FR3	0	R1236J
1451.713	4.224	1693893	REC_END	n/a	n/a	n/a	-999	0	13	[0, 0, 0]	n/a	0	0	0	n/a	n/a	0.0	0	0	0	FR3	0	R1236J
1455.937	0.5	1698117	TRIAL	n/a	n/a	n/a	-999	0	14	[0, 0, 0]	n/a	0	1	0	n/a	n/a	0.0	0	0	0	FR3	0	R1236J
1456.437	10.0	1698617	COUNTDOWN_START	n/a	n/a	n/a	-999	0	14	[0, 0, 0]	n/a	0	1	0	n/a	n/a	0.0	0	0	0	FR3	0	R1236J
1466.865	0.006	1709045	COUNTDOWN_END	n/a	n/a	n/a	-999	0	14	[0, 0, 0]	n/a	0	1	0	n/a	n/a	0.0	0	0	0	FR3	0	R1236J
1466.871	1.6	1709051	ORIENT	n/a	n/a	n/a	-999	0	14	[0, 0, 0]	n/a	0	1	0	n/a	n/a	0.0	0	0	0	FR3	0	R1236J
1468.489	2.001	1710669	ORIENT_OFF	n/a	n/a	n/a	-999	0	14	[0, 0, 0]	n/a	0	1	0	n/a	n/a	0.0	0	0	0	FR3	0	R1236J
1470.49	1.6	1712670	WORD	n/a	wordpools/wordpool.txt	MOUSE	1	1	14	[0, 0, 0]	n/a	0	1	0	n/a	n/a	0.0	0	0	0	FR3	0	R1236J
1472.106	1.016	1714286	WORD_OFF	n/a	n/a	MOUSE	1	0	14	[0, 0, 0]	n/a	0	1	0	n/a	n/a	0.0	0	0	0	FR3	0	R1236J
1473.122	1.6	1715302	WORD	n/a	wordpools/wordpool.txt	DART	2	0	14	[0, 0, 0]	n/a	0	1	0	n/a	n/a	0.0	0	0	0	FR3	0	R1236J
1474.74	0.767	1716920	WORD_OFF	n/a	n/a	DART	2	0	14	[0, 0, 0]	n/a	0	1	0	n/a	n/a	0.0	0	0	0	FR3	0	R1236J
1475.507	1.6	1717687	WORD	n/a	wordpools/wordpool.txt	SCHOOL	3	0	14	[0, 0, 0]	n/a	0	1	0	n/a	n/a	0.0	0	0	0	FR3	0	R1236J
1477.123	0.866	1719303	WORD_OFF	n/a	n/a	SCHOOL	3	0	14	[0, 0, 0]	n/a	0	1	0	n/a	n/a	0.0	0	0	0	FR3	0	R1236J
1477.989	1.6	1720169	WORD	n/a	wordpools/wordpool.txt	SQUARE	4	0	14	[0, 0, 0]	n/a	0	1	0	n/a	n/a	0.0	0	0	0	FR3	0	R1236J
1479.607	0.867	1721787	WORD_OFF	n/a	n/a	SQUARE	4	0	14	[0, 0, 0]	n/a	0	1	0	n/a	n/a	0.0	0	0	0	FR3	0	R1236J
1480.474	1.6	1722654	WORD	n/a	wordpools/wordpool.txt	MOLE	5	0	14	[0, 0, 0]	n/a	0	1	0	n/a	n/a	0.0	0	0	0	FR3	0	R1236J
1482.09	0.1	1724270	WORD_OFF	n/a	n/a	MOLE	5	0	14	[0, 0, 0]	n/a	0	1	0	n/a	n/a	0.0	0	0	0	FR3	0	R1236J
1482.19	0.0	1724370	STIM_ON	n/a	n/a	n/a	5	0	14	[0, 0, 0]	n/a	1	1	500	LS4	LS5	500.0	100	50	300	FR3	0	R1236J
1482.68	0.41	1724860	STIM_OFF	n/a	n/a	n/a	5	0	14	[0, 0, 0]	n/a	0	1	500	LS4	LS5	500.0	100	50	300	FR3	0	R1236J
1483.09	1.6	1725270	WORD	n/a	wordpools/wordpool.txt	SNAKE	6	0	14	[0, 0, 0]	n/a	0	1	0	n/a	n/a	0.0	0	0	0	FR3	0	R1236J
1484.708	0.098	1726888	WORD_OFF	n/a	n/a	SNAKE	6	0	14	[0, 0, 0]	n/a	0	1	0	n/a	n/a	0.0	0	0	0	FR3	0	R1236J
1484.806	0.0	1726986	STIM_ON	n/a	n/a	n/a	6	0	14	[0, 0, 0]	n/a	1	1	500	LS4	LS5	500.0	100	50	300	FR3	0	R1236J
1485.297	0.294	1727477	STIM_OFF	n/a	n/a	n/a	6	0	14	[0, 0, 0]	n/a	0	1	500	LS4	LS5	500.0	100	50	300	FR3	0	R1236J
1485.591	1.6	1727771	WORD	n/a	wordpools/wordpool.txt	BENCH	7	0	14	[0, 0, 0]	n/a	0	1	0	n/a	n/a	0.0	0	0	0	FR3	0	R1236J
1487.208	0.101	1729388	WORD_OFF	n/a	n/a	BENCH	7	0	14	[0, 0, 0]	n/a	0	1	0	n/a	n/a	0.0	0	0	0	FR3	0	R1236J
1487.309	0.0	1729489	STIM_ON	n/a	n/a	n/a	7	0	14	[0, 0, 0]	n/a	1	1	500	LS4	LS5	500.0	100	50	300	FR3	0	R1236J
1487.799	0.375	1729979	STIM_OFF	n/a	n/a	n/a	7	0	14	[0, 0, 0]	n/a	0	1	500	LS4	LS5	500.0	100	50	300	FR3	0	R1236J
1488.174	1.6	1730354	WORD	n/a	wordpools/wordpool.txt	PLANT	8	0	14	[0, 0, 0]	n/a	0	1	0	n/a	n/a	0.0	0	0	0	FR3	0	R1236J
1489.792	0.9	1731972	WORD_OFF	n/a	n/a	PLANT	8	0	14	[0, 0, 0]	n/a	0	1	0	n/a	n/a	0.0	0	0	0	FR3	0	R1236J
1490.692	1.6	1732872	WORD	n/a	wordpools/wordpool.txt	PLANE	9	0	14	[0, 0, 0]	n/a	0	1	0	n/a	n/a	0.0	0	0	0	FR3	0	R1236J
1492.309	0.783	1734489	WORD_OFF	n/a	n/a	PLANE	9	0	14	[0, 0, 0]	n/a	0	1	0	n/a	n/a	0.0	0	0	0	FR3	0	R1236J
1493.092	1.6	1735272	WORD	n/a	wordpools/wordpool.txt	BAT	10	1	14	[0, 0, 0]	n/a	0	1	0	n/a	n/a	0.0	0	0	0	FR3	0	R1236J
1494.709	0.105	1736889	WORD_OFF	n/a	n/a	BAT	10	0	14	[0, 0, 0]	n/a	0	1	0	n/a	n/a	0.0	0	0	0	FR3	0	R1236J
1494.814	0.0	1736994	STIM_ON	n/a	n/a	n/a	10	0	14	[0, 0, 0]	n/a	1	1	500	LS4	LS5	500.0	100	50	300	FR3	0	R1236J
1495.304	0.205	1737484	STIM_OFF	n/a	n/a	n/a	10	0	14	[0, 0, 0]	n/a	0	1	500	LS4	LS5	500.0	100	50	300	FR3	0	R1236J
1495.509	1.6	1737689	WORD	n/a	wordpools/wordpool.txt	NEST	11	1	14	[0, 0, 0]	n/a	0	1	0	n/a	n/a	0.0	0	0	0	FR3	0	R1236J
1497.125	0.867	1739305	WORD_OFF	n/a	n/a	NEST	11	0	14	[0, 0, 0]	n/a	0	1	0	n/a	n/a	0.0	0	0	0	FR3	0	R1236J
1497.992	1.6	1740172	WORD	n/a	wordpools/wordpool.txt	PIG	12	1	14	[0, 0, 0]	n/a	0	1	0	n/a	n/a	0.0	0	0	0	FR3	0	R1236J
1499.61	0.0	1741790	WORD_OFF	n/a	n/a	PIG	12	0	14	[0, 0, 0]	n/a	0	1	0	n/a	n/a	0.0	0	0	0	FR3	0	R1236J
1499.61	0.001	1741790	DISTRACT_START	n/a	n/a	n/a	-999	0	14	[0, 0, 0]	n/a	0	1	0	n/a	n/a	0.0	0	0	0	FR3	0	R1236J
1499.611	0.016	1741791	START	n/a	n/a	n/a	-999	0	14	[-999, -999, -999]	n/a	0	1	0	n/a	n/a	0.0	0	0	0	FR3	0	R1236J
1499.627	3.834	1741807	PROB	3.796	n/a	n/a	-999	0	14	[8, 5, 1]	14	0	1	0	n/a	n/a	0.0	0	0	0	FR3	0	R1236J
1503.461	2.883	1745641	PROB	2.857	n/a	n/a	-999	0	14	[7, 9, 3]	19	0	1	0	n/a	n/a	0.0	0	0	0	FR3	0	R1236J
1506.344	3.533	1748524	PROB	3.495	n/a	n/a	-999	0	14	[6, 8, 4]	18	0	1	0	n/a	n/a	0.0	0	0	0	FR3	0	R1236J
1509.877	4.067	1752057	PROB	4.033	n/a	n/a	-999	0	14	[3, 8, 3]	14	0	1	0	n/a	n/a	0.0	0	0	0	FR3	0	R1236J
1513.944	3.351	1756124	PROB	3.319	n/a	n/a	-999	0	14	[7, 8, 1]	16	0	1	0	n/a	n/a	0.0	0	0	0	FR3	0	R1236J
1517.295	8.902	1759475	PROB	8.902	n/a	n/a	-999	0	14	[6, 5, 9]	20	0	1	0	n/a	n/a	0.0	0	0	0	FR3	0	R1236J
1526.197	0.016	1768377	STOP	n/a	n/a	n/a	-999	0	14	[-999, -999, -999]	n/a	0	1	0	n/a	n/a	0.0	0	0	0	FR3	0	R1236J
1526.213	0.517	1768393	DISTRACT_END	n/a	n/a	n/a	-999	0	14	[0, 0, 0]	n/a	0	1	0	n/a	n/a	0.0	0	0	0	FR3	0	R1236J
1526.73	0.5	1768910	RETRIEVAL_ORIENT	n/a	n/a	n/a	-999	0	14	[0, 0, 0]	n/a	0	1	0	n/a	n/a	0.0	0	0	0	FR3	0	R1236J
1527.247	0.918	1769427	REC_START	n/a	n/a	n/a	-999	0	14	[0, 0, 0]	n/a	0	1	0	n/a	n/a	0.0	0	0	0	FR3	0	R1236J
1528.165	1.336	1770345	REC_WORD	0.918	n/a	BAT	10	1	14	[0, 0, 0]	n/a	0	1	0	n/a	n/a	0.0	0	0	0	FR3	0	R1236J
1529.501	1.616	1771681	REC_WORD	2.254	n/a	NEST	11	1	14	[0, 0, 0]	n/a	0	1	0	n/a	n/a	0.0	0	0	0	FR3	0	R1236J
1531.117	1.718	1773297	REC_WORD	3.87	n/a	PIG	12	1	14	[0, 0, 0]	n/a	0	1	0	n/a	n/a	0.0	0	0	0	FR3	0	R1236J
1532.835	16.158	1775015	REC_WORD	5.588	n/a	MOUSE	1	1	14	[0, 0, 0]	n/a	0	1	0	n/a	n/a	0.0	0	0	0	FR3	0	R1236J
1548.993	8.267	1791173	REC_WORD	21.746	n/a	RAT	-999	0	14	[0, 0, 0]	n/a	0	1	0	n/a	n/a	0.0	0	0	0	FR3	0	R1236J
1557.26	4.69	1799440	REC_END	n/a	n/a	n/a	-999	0	14	[0, 0, 0]	n/a	0	1	0	n/a	n/a	0.0	0	0	0	FR3	0	R1236J
1561.95	0.5	1804130	TRIAL	n/a	n/a	n/a	-999	0	15	[0, 0, 0]	n/a	0	0	0	n/a	n/a	0.0	0	0	0	FR3	0	R1236J
1562.45	10.0	1804630	COUNTDOWN_START	n/a	n/a	n/a	-999	0	15	[0, 0, 0]	n/a	0	0	0	n/a	n/a	0.0	0	0	0	FR3	0	R1236J
1572.878	0.007	1815058	COUNTDOWN_END	n/a	n/a	n/a	-999	0	15	[0, 0, 0]	n/a	0	0	0	n/a	n/a	0.0	0	0	0	FR3	0	R1236J
1572.885	1.6	1815065	ORIENT	n/a	n/a	n/a	-999	0	15	[0, 0, 0]	n/a	0	0	0	n/a	n/a	0.0	0	0	0	FR3	0	R1236J
1574.503	2.25	1816683	ORIENT_OFF	n/a	n/a	n/a	-999	0	15	[0, 0, 0]	n/a	0	0	0	n/a	n/a	0.0	0	0	0	FR3	0	R1236J
1576.753	1.6	1818933	WORD	n/a	wordpools/wordpool.txt	FLOOR	1	1	15	[0, 0, 0]	n/a	0	0	0	n/a	n/a	0.0	0	0	0	FR3	0	R1236J
1578.37	0.817	1820550	WORD_OFF	n/a	n/a	FLOOR	1	0	15	[0, 0, 0]	n/a	0	0	0	n/a	n/a	0.0	0	0	0	FR3	0	R1236J
1579.187	1.6	1821367	WORD	n/a	wordpools/wordpool.txt	MAT	2	1	15	[0, 0, 0]	n/a	0	0	0	n/a	n/a	0.0	0	0	0	FR3	0	R1236J
1580.804	0.967	1822984	WORD_OFF	n/a	n/a	MAT	2	0	15	[0, 0, 0]	n/a	0	0	0	n/a	n/a	0.0	0	0	0	FR3	0	R1236J
1581.771	1.6	1823951	WORD	n/a	wordpools/wordpool.txt	NAIL	3	1	15	[0, 0, 0]	n/a	0	0	0	n/a	n/a	0.0	0	0	0	FR3	0	R1236J
1583.387	0.783	1825567	WORD_OFF	n/a	n/a	NAIL	3	0	15	[0, 0, 0]	n/a	0	0	0	n/a	n/a	0.0	0	0	0	FR3	0	R1236J
1584.17	1.6	1826350	WORD	n/a	wordpools/wordpool.txt	LAMP	4	0	15	[0, 0, 0]	n/a	0	0	0	n/a	n/a	0.0	0	0	0	FR3	0	R1236J
1585.788	0.833	1827968	WORD_OFF	n/a	n/a	LAMP	4	0	15	[0, 0, 0]	n/a	0	0	0	n/a	n/a	0.0	0	0	0	FR3	0	R1236J
1586.621	1.6	1828801	WORD	n/a	wordpools/wordpool.txt	ROOF	5	0	15	[0, 0, 0]	n/a	0	0	0	n/a	n/a	0.0	0	0	0	FR3	0	R1236J
1588.238	0.832	1830418	WORD_OFF	n/a	n/a	ROOF	5	0	15	[0, 0, 0]	n/a	0	0	0	n/a	n/a	0.0	0	0	0	FR3	0	R1236J
1589.07	1.6	1831250	WORD	n/a	wordpools/wordpool.txt	COUCH	6	1	15	[0, 0, 0]	n/a	0	0	0	n/a	n/a	0.0	0	0	0	FR3	0	R1236J
1590.688	0.867	1832868	WORD_OFF	n/a	n/a	COUCH	6	0	15	[0, 0, 0]	n/a	0	0	0	n/a	n/a	0.0	0	0	0	FR3	0	R1236J
1591.555	1.6	1833735	WORD	n/a	wordpools/wordpool.txt	STORM	7	0	15	[0, 0, 0]	n/a	0	0	0	n/a	n/a	0.0	0	0	0	FR3	0	R1236J
1593.171	0.767	1835351	WORD_OFF	n/a	n/a	STORM	7	0	15	[0, 0, 0]	n/a	0	0	0	n/a	n/a	0.0	0	0	0	FR3	0	R1236J
1593.938	1.6	1836118	WORD	n/a	wordpools/wordpool.txt	BROOM	8	0	15	[0, 0, 0]	n/a	0	0	0	n/a	n/a	0.0	0	0	0	FR3	0	R1236J
1595.555	0.834	1837735	WORD_OFF	n/a	n/a	BROOM	8	0	15	[0, 0, 0]	n/a	0	0	0	n/a	n/a	0.0	0	0	0	FR3	0	R1236J
1596.389	1.6	1838569	WORD	n/a	wordpools/wordpool.txt	LAMB	9	0	15	[0, 0, 0]	n/a	0	0	0	n/a	n/a	0.0	0	0	0	FR3	0	R1236J
1598.005	0.95	1840185	WORD_OFF	n/a	n/a	LAMB	9	0	15	[0, 0, 0]	n/a	0	0	0	n/a	n/a	0.0	0	0	0	FR3	0	R1236J
1598.955	1.6	1841135	WORD	n/a	wordpools/wordpool.txt	MUD	10	0	15	[0, 0, 0]	n/a	0	0	0	n/a	n/a	0.0	0	0	0	FR3	0	R1236J
1600.572	1.001	1842752	WORD_OFF	n/a	n/a	MUD	10	0	15	[0, 0, 0]	n/a	0	0	0	n/a	n/a	0.0	0	0	0	FR3	0	R1236J
1601.573	1.6	1843753	WORD	n/a	wordpools/wordpool.txt	DRUM	11	0	15	[0, 0, 0]	n/a	0	0	0	n/a	n/a	0.0	0	0	0	FR3	0	R1236J
1603.19	0.965	1845370	WORD_OFF	n/a	n/a	DRUM	11	0	15	[0, 0, 0]	n/a	0	0	0	n/a	n/a	0.0	0	0	0	FR3	0	R1236J
1604.155	1.6	1846335	WORD	n/a	wordpools/wordpool.txt	FROG	12	0	15	[0, 0, 0]	n/a	0	0	0	n/a	n/a	0.0	0	0	0	FR3	0	R1236J
1605.756	0.0	1847936	WORD_OFF	n/a	n/a	FROG	12	0	15	[0, 0, 0]	n/a	0	0	0	n/a	n/a	0.0	0	0	0	FR3	0	R1236J
1605.756	0.001	1847936	DISTRACT_START	n/a	n/a	n/a	-999	0	15	[0, 0, 0]	n/a	0	0	0	n/a	n/a	0.0	0	0	0	FR3	0	R1236J
1605.757	0.016	1847937	START	n/a	n/a	n/a	-999	0	15	[-999, -999, -999]	n/a	0	0	0	n/a	n/a	0.0	0	0	0	FR3	0	R1236J
1605.773	5.35	1847953	PROB	5.316	n/a	n/a	-999	0	15	[7, 5, 2]	14	0	0	0	n/a	n/a	0.0	0	0	0	FR3	0	R1236J
1611.123	2.967	1853303	PROB	2.934	n/a	n/a	-999	0	15	[8, 9, 2]	19	0	0	0	n/a	n/a	0.0	0	0	0	FR3	0	R1236J
1614.09	7.851	1856270	PROB	7.823	n/a	n/a	-999	0	15	[4, 3, 5]	12	0	0	0	n/a	n/a	0.0	0	0	0	FR3	0	R1236J
1621.941	3.685	1864121	PROB	3.659	n/a	n/a	-999	0	15	[5, 3, 2]	10	0	0	0	n/a	n/a	0.0	0	0	0	FR3	0	R1236J
1625.626	3.055	1867806	PROB	3.055	n/a	n/a	-999	0	15	[9, 2, 1]	12	0	0	0	n/a	n/a	0.0	0	0	0	FR3	0	R1236J
1628.681	0.012	1870861	STOP	n/a	n/a	n/a	-999	0	15	[-999, -999, -999]	n/a	0	0	0	n/a	n/a	0.0	0	0	0	FR3	0	R1236J
1628.693	0.7	1870873	DISTRACT_END	n/a	n/a	n/a	-999	0	15	[0, 0, 0]	n/a	0	0	0	n/a	n/a	0.0	0	0	0	FR3	0	R1236J
1629.393	0.5	1871573	RETRIEVAL_ORIENT	n/a	n/a	n/a	-999	0	15	[0, 0, 0]	n/a	0	0	0	n/a	n/a	0.0	0	0	0	FR3	0	R1236J
1629.91	0.908	1872090	REC_START	n/a	n/a	n/a	-999	0	15	[0, 0, 0]	n/a	0	0	0	n/a	n/a	0.0	0	0	0	FR3	0	R1236J
1630.818	1.119	1872998	REC_WORD	0.908	n/a	MAT	2	1	15	[0, 0, 0]	n/a	0	0	0	n/a	n/a	0.0	0	0	0	FR3	0	R1236J
1631.937	2.845	1874117	REC_WORD	2.027	n/a	NAIL	3	1	15	[0, 0, 0]	n/a	0	0	0	n/a	n/a	0.0	0	0	0	FR3	0	R1236J
1634.782	1.0	1876962	REC_WORD	4.872	n/a	CEILING	-999	0	15	[0, 0, 0]	n/a	0	0	0	n/a	n/a	0.0	0	0	0	FR3	0	R1236J
1635.782	0.405	1877962	REC_WORD_VV	5.872	n/a	<>	-999	0	15	[0, 0, 0]	n/a	0	0	0	n/a	n/a	0.0	0	0	0	FR3	0	R1236J
1636.187	9.881	1878367	REC_WORD	6.277	n/a	FLOOR	1	1	15	[0, 0, 0]	n/a	0	0	0	n/a	n/a	0.0	0	0	0	FR3	0	R1236J
1646.068	3.284	1888248	REC_WORD	16.158	n/a	COUCH	6	1	15	[0, 0, 0]	n/a	0	0	0	n/a	n/a	0.0	0	0	0	FR3	0	R1236J
1649.352	10.57	1891532	REC_WORD	19.442	n/a	ROOM	-999	0	15	[0, 0, 0]	n/a	0	0	0	n/a	n/a	0.0	0	0	0	FR3	0	R1236J
1659.922	4.875	1902102	REC_END	n/a	n/a	n/a	-999	0	15	[0, 0, 0]	n/a	0	0	0	n/a	n/a	0.0	0	0	0	FR3	0	R1236J
1664.797	0.5	1906977	TRIAL	n/a	n/a	n/a	-999	0	16	[0, 0, 0]	n/a	0	0	0	n/a	n/a	0.0	0	0	0	FR3	0	R1236J
1665.297	10.0	1907477	COUNTDOWN_START	n/a	n/a	n/a	-999	0	16	[0, 0, 0]	n/a	0	0	0	n/a	n/a	0.0	0	0	0	FR3	0	R1236J
1675.725	0.007	1917905	COUNTDOWN_END	n/a	n/a	n/a	-999	0	16	[0, 0, 0]	n/a	0	0	0	n/a	n/a	0.0	0	0	0	FR3	0	R1236J
1675.732	1.6	1917912	ORIENT	n/a	n/a	n/a	-999	0	16	[0, 0, 0]	n/a	0	0	0	n/a	n/a	0.0	0	0	0	FR3	0	R1236J
1677.349	2.167	1919529	ORIENT_OFF	n/a	n/a	n/a	-999	0	16	[0, 0, 0]	n/a	0	0	0	n/a	n/a	0.0	0	0	0	FR3	0	R1236J
1679.516	1.6	1921696	WORD	n/a	wordpools/wordpool.txt	SWAMP	1	1	16	[0, 0, 0]	n/a	0	0	0	n/a	n/a	0.0	0	0	0	FR3	0	R1236J
1681.132	0.8	1923312	WORD_OFF	n/a	n/a	SWAMP	1	0	16	[0, 0, 0]	n/a	0	0	0	n/a	n/a	0.0	0	0	0	FR3	0	R1236J
1681.932	1.6	1924112	WORD	n/a	wordpools/wordpool.txt	HILL	2	1	16	[0, 0, 0]	n/a	0	0	0	n/a	n/a	0.0	0	0	0	FR3	0	R1236J
1683.533	0.934	1925713	WORD_OFF	n/a	n/a	HILL	2	0	16	[0, 0, 0]	n/a	0	0	0	n/a	n/a	0.0	0	0	0	FR3	0	R1236J
1684.467	1.6	1926647	WORD	n/a	wordpools/wordpool.txt	SLIME	3	1	16	[0, 0, 0]	n/a	0	0	0	n/a	n/a	0.0	0	0	0	FR3	0	R1236J
1686.082	1.001	1928262	WORD_OFF	n/a	n/a	SLIME	3	0	16	[0, 0, 0]	n/a	0	0	0	n/a	n/a	0.0	0	0	0	FR3	0	R1236J
1687.083	1.6	1929263	WORD	n/a	wordpools/wordpool.txt	GUARD	4	0	16	[0, 0, 0]	n/a	0	0	0	n/a	n/a	0.0	0	0	0	FR3	0	R1236J
1688.684	0.917	1930864	WORD_OFF	n/a	n/a	GUARD	4	0	16	[0, 0, 0]	n/a	0	0	0	n/a	n/a	0.0	0	0	0	FR3	0	R1236J
1689.601	1.6	1931781	WORD	n/a	wordpools/wordpool.txt	DRESS	5	0	16	[0, 0, 0]	n/a	0	0	0	n/a	n/a	0.0	0	0	0	FR3	0	R1236J
1691.218	0.799	1933398	WORD_OFF	n/a	n/a	DRESS	5	0	16	[0, 0, 0]	n/a	0	0	0	n/a	n/a	0.0	0	0	0	FR3	0	R1236J
1692.017	1.6	1934197	WORD	n/a	wordpools/wordpool.txt	BOOT	6	0	16	[0, 0, 0]	n/a	0	0	0	n/a	n/a	0.0	0	0	0	FR3	0	R1236J
1693.635	0.9	1935815	WORD_OFF	n/a	n/a	BOOT	6	0	16	[0, 0, 0]	n/a	0	0	0	n/a	n/a	0.0	0	0	0	FR3	0	R1236J
1694.535	1.6	1936715	WORD	n/a	wordpools/wordpool.txt	FLEA	7	1	16	[0, 0, 0]	n/a	0	0	0	n/a	n/a	0.0	0	0	0	FR3	0	R1236J
1696.151	0.85	1938331	WORD_OFF	n/a	n/a	FLEA	7	0	16	[0, 0, 0]	n/a	0	0	0	n/a	n/a	0.0	0	0	0	FR3	0	R1236J
1697.001	1.6	1939181	WORD	n/a	wordpools/wordpool.txt	STICK	8	1	16	[0, 0, 0]	n/a	0	0	0	n/a	n/a	0.0	0	0	0	FR3	0	R1236J
1698.619	0.866	1940799	WORD_OFF	n/a	n/a	STICK	8	0	16	[0, 0, 0]	n/a	0	0	0	n/a	n/a	0.0	0	0	0	FR3	0	R1236J
1699.485	1.6	1941665	WORD	n/a	wordpools/wordpool.txt	LIP	9	0	16	[0, 0, 0]	n/a	0	0	0	n/a	n/a	0.0	0	0	0	FR3	0	R1236J
1701.101	0.834	1943281	WORD_OFF	n/a	n/a	LIP	9	0	16	[0, 0, 0]	n/a	0	0	0	n/a	n/a	0.0	0	0	0	FR3	0	R1236J
1701.935	1.6	1944115	WORD	n/a	wordpools/wordpool.txt	DOOR	10	1	16	[0, 0, 0]	n/a	0	0	0	n/a	n/a	0.0	0	0	0	FR3	0	R1236J
1703.553	1.0	1945733	WORD_OFF	n/a	n/a	DOOR	10	0	16	[0, 0, 0]	n/a	0	0	0	n/a	n/a	0.0	0	0	0	FR3	0	R1236J
1704.553	1.6	1946733	WORD	n/a	wordpools/wordpool.txt	COW	11	1	16	[0, 0, 0]	n/a	0	0	0	n/a	n/a	0.0	0	0	0	FR3	0	R1236J
1706.169	0.95	1948349	WORD_OFF	n/a	n/a	COW	11	0	16	[0, 0, 0]	n/a	0	0	0	n/a	n/a	0.0	0	0	0	FR3	0	R1236J
1707.119	1.6	1949299	WORD	n/a	wordpools/wordpool.txt	PEN	12	0	16	[0, 0, 0]	n/a	0	0	0	n/a	n/a	0.0	0	0	0	FR3	0	R1236J
1708.737	0.0	1950917	WORD_OFF	n/a	n/a	PEN	12	0	16	[0, 0, 0]	n/a	0	0	0	n/a	n/a	0.0	0	0	0	FR3	0	R1236J
1708.737	0.0	1950917	DISTRACT_START	n/a	n/a	n/a	-999	0	16	[0, 0, 0]	n/a	0	0	0	n/a	n/a	0.0	0	0	0	FR3	0	R1236J
1708.737	0.016	1950917	START	n/a	n/a	n/a	-999	0	16	[-999, -999, -999]	n/a	0	0	0	n/a	n/a	0.0	0	0	0	FR3	0	R1236J
1708.753	4.15	1950933	PROB	4.125	n/a	n/a	-999	0	16	[8, 4, 6]	18	0	0	0	n/a	n/a	0.0	0	0	0	FR3	0	R1236J
1712.903	3.1	1955083	PROB	3.062	n/a	n/a	-999	0	16	[3, 5, 5]	13	0	0	0	n/a	n/a	0.0	0	0	0	FR3	0	R1236J
1716.003	2.635	1958183	PROB	2.602	n/a	n/a	-999	0	16	[1, 6, 1]	8	0	0	0	n/a	n/a	0.0	0	0	0	FR3	0	R1236J
1718.638	3.399	1960818	PROB	3.368	n/a	n/a	-999	0	16	[3, 4, 6]	13	0	0	0	n/a	n/a	0.0	0	0	0	FR3	0	R1236J
1722.037	5.652	1964217	PROB	5.625	n/a	n/a	-999	0	16	[5, 9, 8]	22	0	0	0	n/a	n/a	0.0	0	0	0	FR3	0	R1236J
1727.689	2.692	1969869	PROB	2.692	n/a	n/a	-999	0	16	[1, 6, 4]	11	0	0	0	n/a	n/a	0.0	0	0	0	FR3	0	R1236J
1730.381	0.009	1972561	STOP	n/a	n/a	n/a	-999	0	16	[-999, -999, -999]	n/a	0	0	0	n/a	n/a	0.0	0	0	0	FR3	0	R1236J
1730.39	0.599	1972570	DISTRACT_END	n/a	n/a	n/a	-999	0	16	[0, 0, 0]	n/a	0	0	0	n/a	n/a	0.0	0	0	0	FR3	0	R1236J
1730.989	0.5	1973169	RETRIEVAL_ORIENT	n/a	n/a	n/a	-999	0	16	[0, 0, 0]	n/a	0	0	0	n/a	n/a	0.0	0	0	0	FR3	0	R1236J
1731.507	0.821	1973687	REC_START	n/a	n/a	n/a	-999	0	16	[0, 0, 0]	n/a	0	0	0	n/a	n/a	0.0	0	0	0	FR3	0	R1236J
1732.328	0.954	1974508	REC_WORD	0.821	n/a	COW	11	1	16	[0, 0, 0]	n/a	0	0	0	n/a	n/a	0.0	0	0	0	FR3	0	R1236J
1733.282	2.903	1975462	REC_WORD	1.775	n/a	FLEA	7	1	16	[0, 0, 0]	n/a	0	0	0	n/a	n/a	0.0	0	0	0	FR3	0	R1236J
1736.185	6.91	1978365	REC_WORD	4.678	n/a	DOOR	10	1	16	[0, 0, 0]	n/a	0	0	0	n/a	n/a	0.0	0	0	0	FR3	0	R1236J
1743.095	6.558	1985275	REC_WORD	11.588	n/a	MAT	-999	0	16	[0, 0, 0]	n/a	0	0	0	n/a	n/a	0.0	0	0	0	FR3	0	R1236J
1749.653	4.559	1991833	REC_WORD	18.146	n/a	STICK	8	1	16	[0, 0, 0]	n/a	0	0	0	n/a	n/a	0.0	0	0	0	FR3	0	R1236J
1754.212	1.155	1996392	REC_WORD	22.705	n/a	SWAMP	1	1	16	[0, 0, 0]	n/a	0	0	0	n/a	n/a	0.0	0	0	0	FR3	0	R1236J
1755.367	4.844	1997547	REC_WORD	23.86	n/a	SLIME	3	1	16	[0, 0, 0]	n/a	0	0	0	n/a	n/a	0.0	0	0	0	FR3	0	R1236J
1760.211	1.307	2002391	REC_WORD	28.704	n/a	HILL	2	1	16	[0, 0, 0]	n/a	0	0	0	n/a	n/a	0.0	0	0	0	FR3	0	R1236J
1761.518	4.508	2003698	REC_END	n/a	n/a	n/a	-999	0	16	[0, 0, 0]	n/a	0	0	0	n/a	n/a	0.0	0	0	0	FR3	0	R1236J
1766.026	0.5	2008206	TRIAL	n/a	n/a	n/a	-999	0	17	[0, 0, 0]	n/a	0	1	0	n/a	n/a	0.0	0	0	0	FR3	0	R1236J
1766.526	10.0	2008706	COUNTDOWN_START	n/a	n/a	n/a	-999	0	17	[0, 0, 0]	n/a	0	1	0	n/a	n/a	0.0	0	0	0	FR3	0	R1236J
1776.954	0.007	2019134	COUNTDOWN_END	n/a	n/a	n/a	-999	0	17	[0, 0, 0]	n/a	0	1	0	n/a	n/a	0.0	0	0	0	FR3	0	R1236J
1776.961	1.6	2019141	ORIENT	n/a	n/a	n/a	-999	0	17	[0, 0, 0]	n/a	0	1	0	n/a	n/a	0.0	0	0	0	FR3	0	R1236J
1778.579	2.25	2020759	ORIENT_OFF	n/a	n/a	n/a	-999	0	17	[0, 0, 0]	n/a	0	1	0	n/a	n/a	0.0	0	0	0	FR3	0	R1236J
1780.829	1.6	2023009	WORD	n/a	wordpools/wordpool.txt	LAKE	1	1	17	[0, 0, 0]	n/a	0	1	0	n/a	n/a	0.0	0	0	0	FR3	0	R1236J
1782.446	0.967	2024626	WORD_OFF	n/a	n/a	LAKE	1	0	17	[0, 0, 0]	n/a	0	1	0	n/a	n/a	0.0	0	0	0	FR3	0	R1236J
1783.413	1.6	2025593	WORD	n/a	wordpools/wordpool.txt	PASTE	2	1	17	[0, 0, 0]	n/a	0	1	0	n/a	n/a	0.0	0	0	0	FR3	0	R1236J
1785.029	0.95	2027209	WORD_OFF	n/a	n/a	PASTE	2	0	17	[0, 0, 0]	n/a	0	1	0	n/a	n/a	0.0	0	0	0	FR3	0	R1236J
1785.979	1.6	2028159	WORD	n/a	wordpools/wordpool.txt	SPEAR	3	1	17	[0, 0, 0]	n/a	0	1	0	n/a	n/a	0.0	0	0	0	FR3	0	R1236J
1787.597	0.783	2029777	WORD_OFF	n/a	n/a	SPEAR	3	0	17	[0, 0, 0]	n/a	0	1	0	n/a	n/a	0.0	0	0	0	FR3	0	R1236J
1788.38	1.6	2030560	WORD	n/a	wordpools/wordpool.txt	BOMB	4	0	17	[0, 0, 0]	n/a	0	1	0	n/a	n/a	0.0	0	0	0	FR3	0	R1236J
1789.996	0.835	2032176	WORD_OFF	n/a	n/a	BOMB	4	0	17	[0, 0, 0]	n/a	0	1	0	n/a	n/a	0.0	0	0	0	FR3	0	R1236J
1790.831	1.6	2033011	WORD	n/a	wordpools/wordpool.txt	SEAT	5	1	17	[0, 0, 0]	n/a	0	1	0	n/a	n/a	0.0	0	0	0	FR3	0	R1236J
1792.448	0.135	2034628	WORD_OFF	n/a	n/a	SEAT	5	0	17	[0, 0, 0]	n/a	0	1	0	n/a	n/a	0.0	0	0	0	FR3	0	R1236J
1792.583	0.0	2034763	STIM_ON	n/a	n/a	n/a	5	0	17	[0, 0, 0]	n/a	1	1	500	LS4	LS5	500.0	100	50	300	FR3	0	R1236J
1793.073	0.225	2035253	STIM_OFF	n/a	n/a	n/a	5	0	17	[0, 0, 0]	n/a	0	1	500	LS4	LS5	500.0	100	50	300	FR3	0	R1236J
1793.298	1.6	2035478	WORD	n/a	wordpools/wordpool.txt	CHIEF	6	0	17	[0, 0, 0]	n/a	0	1	0	n/a	n/a	0.0	0	0	0	FR3	0	R1236J
1794.913	0.131	2037093	WORD_OFF	n/a	n/a	CHIEF	6	0	17	[0, 0, 0]	n/a	0	1	0	n/a	n/a	0.0	0	0	0	FR3	0	R1236J
1795.044	0.0	2037224	STIM_ON	n/a	n/a	n/a	6	0	17	[0, 0, 0]	n/a	1	1	500	LS4	LS5	500.0	100	50	300	FR3	0	R1236J
1795.534	0.23	2037714	STIM_OFF	n/a	n/a	n/a	6	0	17	[0, 0, 0]	n/a	0	1	500	LS4	LS5	500.0	100	50	300	FR3	0	R1236J
1795.764	1.6	2037944	WORD	n/a	wordpools/wordpool.txt	DOCK	7	0	17	[0, 0, 0]	n/a	0	1	0	n/a	n/a	0.0	0	0	0	FR3	0	R1236J
1797.381	0.934	2039561	WORD_OFF	n/a	n/a	DOCK	7	0	17	[0, 0, 0]	n/a	0	1	0	n/a	n/a	0.0	0	0	0	FR3	0	R1236J
1798.315	1.6	2040495	WORD	n/a	wordpools/wordpool.txt	SOCK	8	0	17	[0, 0, 0]	n/a	0	1	0	n/a	n/a	0.0	0	0	0	FR3	0	R1236J
1799.931	0.128	2042111	WORD_OFF	n/a	n/a	SOCK	8	0	17	[0, 0, 0]	n/a	0	1	0	n/a	n/a	0.0	0	0	0	FR3	0	R1236J
1800.059	0.0	2042239	STIM_ON	n/a	n/a	n/a	8	0	17	[0, 0, 0]	n/a	1	1	500	LS4	LS5	500.0	100	50	300	FR3	0	R1236J
1800.549	0.365	2042729	STIM_OFF	n/a	n/a	n/a	8	0	17	[0, 0, 0]	n/a	0	1	500	LS4	LS5	500.0	100	50	300	FR3	0	R1236J
1800.914	1.6	2043094	WORD	n/a	wordpools/wordpool.txt	SOAP	9	1	17	[0, 0, 0]	n/a	0	1	0	n/a	n/a	0.0	0	0	0	FR3	0	R1236J
1802.532	1.0	2044712	WORD_OFF	n/a	n/a	SOAP	9	0	17	[0, 0, 0]	n/a	0	1	0	n/a	n/a	0.0	0	0	0	FR3	0	R1236J
1803.532	1.6	2045712	WORD	n/a	wordpools/wordpool.txt	THUMB	10	0	17	[0, 0, 0]	n/a	0	1	0	n/a	n/a	0.0	0	0	0	FR3	0	R1236J
1805.148	0.136	2047328	WORD_OFF	n/a	n/a	THUMB	10	0	17	[0, 0, 0]	n/a	0	1	0	n/a	n/a	0.0	0	0	0	FR3	0	R1236J
1805.284	0.0	2047464	STIM_ON	n/a	n/a	n/a	10	0	17	[0, 0, 0]	n/a	1	1	500	LS4	LS5	500.0	100	50	300	FR3	0	R1236J
1805.774	0.291	2047954	STIM_OFF	n/a	n/a	n/a	10	0	17	[0, 0, 0]	n/a	0	1	500	LS4	LS5	500.0	100	50	300	FR3	0	R1236J
1806.065	1.6	2048245	WORD	n/a	wordpools/wordpool.txt	APE	11	0	17	[0, 0, 0]	n/a	0	1	0	n/a	n/a	0.0	0	0	0	FR3	0	R1236J
1807.683	0.14	2049864	WORD_OFF	n/a	n/a	APE	11	0	17	[0, 0, 0]	n/a	0	1	0	n/a	n/a	0.0	0	0	0	FR3	0	R1236J
1807.823	0.0	2050004	STIM_ON	n/a	n/a	n/a	11	0	17	[0, 0, 0]	n/a	1	1	500	LS4	LS5	500.0	100	50	300	FR3	0	R1236J
1808.313	0.186	2050494	STIM_OFF	n/a	n/a	n/a	11	0	17	[0, 0, 0]	n/a	0	1	500	LS4	LS5	500.0	100	50	300	FR3	0	R1236J
1808.499	1.6	2050680	WORD	n/a	wordpools/wordpool.txt	POND	12	1	17	[0, 0, 0]	n/a	0	1	0	n/a	n/a	0.0	0	0	0	FR3	0	R1236J
1810.115	0.0	2052296	WORD_OFF	n/a	n/a	POND	12	0	17	[0, 0, 0]	n/a	0	1	0	n/a	n/a	0.0	0	0	0	FR3	0	R1236J
1810.115	0.001	2052296	DISTRACT_START	n/a	n/a	n/a	-999	0	17	[0, 0, 0]	n/a	0	1	0	n/a	n/a	0.0	0	0	0	FR3	0	R1236J
1810.116	0.016	2052297	START	n/a	n/a	n/a	-999	0	17	[-999, -999, -999]	n/a	0	1	0	n/a	n/a	0.0	0	0	0	FR3	0	R1236J
1810.132	3.534	2052313	PROB	3.51	n/a	n/a	-999	0	17	[4, 8, 2]	14	0	1	0	n/a	n/a	0.0	0	0	0	FR3	0	R1236J
1813.666	2.433	2055847	PROB	2.399	n/a	n/a	-999	0	17	[1, 5, 5]	11	0	1	0	n/a	n/a	0.0	0	0	0	FR3	0	R1236J
1816.099	3.468	2058280	PROB	3.431	n/a	n/a	-999	0	17	[2, 7, 5]	14	0	1	0	n/a	n/a	0.0	0	0	0	FR3	0	R1236J
1819.567	3.333	2061748	PROB	3.298	n/a	n/a	-999	0	17	[6, 7, 2]	15	0	1	0	n/a	n/a	0.0	0	0	0	FR3	0	R1236J
1822.9	2.251	2065081	PROB	2.212	n/a	n/a	-999	0	17	[1, 1, 1]	3	0	1	0	n/a	n/a	0.0	0	0	0	FR3	0	R1236J
1825.151	3.334	2067332	PROB	3.306	n/a	n/a	-999	0	17	[8, 5, 3]	16	0	1	0	n/a	n/a	0.0	0	0	0	FR3	0	R1236J
1828.485	5.467	2070666	PROB	5.467	n/a	n/a	-999	0	17	[4, 5, 6]	15	0	1	0	n/a	n/a	0.0	0	0	0	FR3	0	R1236J
1833.952	0.017	2076133	STOP	n/a	n/a	n/a	-999	0	17	[-999, -999, -999]	n/a	0	1	0	n/a	n/a	0.0	0	0	0	FR3	0	R1236J
1833.969	0.517	2076150	DISTRACT_END	n/a	n/a	n/a	-999	0	17	[0, 0, 0]	n/a	0	1	0	n/a	n/a	0.0	0	0	0	FR3	0	R1236J
1834.486	0.5	2076667	RETRIEVAL_ORIENT	n/a	n/a	n/a	-999	0	17	[0, 0, 0]	n/a	0	1	0	n/a	n/a	0.0	0	0	0	FR3	0	R1236J
1835.002	0.832	2077183	REC_START	n/a	n/a	n/a	-999	0	17	[0, 0, 0]	n/a	0	1	0	n/a	n/a	0.0	0	0	0	FR3	0	R1236J
1835.834	0.992	2078015	REC_WORD	0.832	n/a	LAKE	1	1	17	[0, 0, 0]	n/a	0	1	0	n/a	n/a	0.0	0	0	0	FR3	0	R1236J
1836.826	1.344	2079007	REC_WORD	1.824	n/a	POND	12	1	17	[0, 0, 0]	n/a	0	1	0	n/a	n/a	0.0	0	0	0	FR3	0	R1236J
1838.17	2.382	2080351	REC_WORD	3.168	n/a	SPEAR	3	1	17	[0, 0, 0]	n/a	0	1	0	n/a	n/a	0.0	0	0	0	FR3	0	R1236J
1840.552	4.701	2082733	REC_WORD	5.55	n/a	SEAT	5	1	17	[0, 0, 0]	n/a	0	1	0	n/a	n/a	0.0	0	0	0	FR3	0	R1236J
1845.253	5.868	2087434	REC_WORD	10.251	n/a	SOAP	9	1	17	[0, 0, 0]	n/a	0	1	0	n/a	n/a	0.0	0	0	0	FR3	0	R1236J
1851.121	13.893	2093302	REC_WORD	16.119	n/a	PASTE	2	1	17	[0, 0, 0]	n/a	0	1	0	n/a	n/a	0.0	0	0	0	FR3	0	R1236J
1865.014	4.293	2107195	REC_END	n/a	n/a	n/a	-999	0	17	[0, 0, 0]	n/a	0	1	0	n/a	n/a	0.0	0	0	0	FR3	0	R1236J
