onset	duration	sample	trial_type	response_time	stim_file	item_name	serialpos	recalled	list	test	answer	stimulation	stim_list	stim_duration	anode_label	cathode_label	amplitude	pulse_freq	n_pulses	pulse_width	experiment	session	subject
0.0	0.0	45787	STIM_ON	n/a	n/a	n/a	-999	0	-999	[0, 0, 0]	n/a	1	0	500	LTCG29	LTCG30	250.0	200	100	300	FR3	3	R1154D
0.5	8.645	46287	STIM_OFF	n/a	n/a	n/a	-999	0	-999	[0, 0, 0]	n/a	0	0	500	LTCG29	LTCG30	250.0	200	100	300	FR3	3	R1154D
9.145	0.0	54932	STIM_ON	n/a	n/a	n/a	-999	0	-999	[0, 0, 0]	n/a	1	0	500	LTCG29	LTCG30	500.0	200	100	300	FR3	3	R1154D
9.645	11.403	55432	STIM_OFF	n/a	n/a	n/a	-999	0	-999	[0, 0, 0]	n/a	0	0	500	LTCG29	LTCG30	500.0	200	100	300	FR3	3	R1154D
21.048	0.0	66834	STIM_ON	n/a	n/a	n/a	-999	0	-999	[0, 0, 0]	n/a	1	0	500	LTCG29	LTCG30	1000.0	200	100	300	FR3	3	R1154D
21.548	17.222	67334	STIM_OFF	n/a	n/a	n/a	-999	0	-999	[0, 0, 0]	n/a	0	0	500	LTCG29	LTCG30	1000.0	200	100	300	FR3	3	R1154D
38.77	0.0	84555	INSTRUCT_START	n/a	n/a	n/a	-999	0	-999	[0, 0, 0]	n/a	0	0	0	n/a	n/a	0.0	0	0	0	FR3	3	R1154D
38.77	11.067	84555	INSTRUCT_END	n/a	n/a	n/a	-999	0	-999	[0, 0, 0]	n/a	0	0	0	n/a	n/a	0.0	0	0	0	FR3	3	R1154D
49.837	0.0	95622	MIC_TEST	n/a	n/a	n/a	-999	0	-999	[0, 0, 0]	n/a	0	0	0	n/a	n/a	0.0	0	0	0	FR3	3	R1154D
49.837	9.5	95622	SESS_START	n/a	n/a	n/a	-999	0	-999	[0, 0, 0]	n/a	0	0	0	n/a	n/a	0.0	0	0	0	FR3	3	R1154D
59.337	1.353	105121	PRACTICE_TRIAL	n/a	n/a	n/a	-999	0	-1	[0, 0, 0]	n/a	0	0	0	n/a	n/a	0.0	0	0	0	FR3	3	R1154D
60.69	10.0	106474	COUNTDOWN_START	n/a	n/a	n/a	-999	0	-1	[0, 0, 0]	n/a	0	0	0	n/a	n/a	0.0	0	0	0	FR3	3	R1154D
71.118	0.008	116901	COUNTDOWN_END	n/a	n/a	n/a	-999	0	-1	[0, 0, 0]	n/a	0	0	0	n/a	n/a	0.0	0	0	0	FR3	3	R1154D
71.126	1.6	116909	PRACTICE_ORIENT	n/a	n/a	n/a	-999	0	-1	[0, 0, 0]	n/a	0	0	0	n/a	n/a	0.0	0	0	0	FR3	3	R1154D
72.743	1.984	118526	PRACTICE_ORIENT_OFF	n/a	n/a	n/a	-999	0	-1	[0, 0, 0]	n/a	0	0	0	n/a	n/a	0.0	0	0	0	FR3	3	R1154D
74.727	1.6	120510	PRACTICE_WORD	n/a	n/a	IRON	1	0	-1	[0, 0, 0]	n/a	0	0	0	n/a	n/a	0.0	0	0	0	FR3	3	R1154D
76.344	0.984	122127	PRACTICE_WORD_OFF	n/a	n/a	IRON	-999	0	-1	[0, 0, 0]	n/a	0	0	0	n/a	n/a	0.0	0	0	0	FR3	3	R1154D
77.328	1.6	123111	PRACTICE_WORD	n/a	n/a	RHINO	2	0	-1	[0, 0, 0]	n/a	0	0	0	n/a	n/a	0.0	0	0	0	FR3	3	R1154D
78.944	0.8	124727	PRACTICE_WORD_OFF	n/a	n/a	RHINO	-999	0	-1	[0, 0, 0]	n/a	0	0	0	n/a	n/a	0.0	0	0	0	FR3	3	R1154D
79.744	1.6	125527	PRACTICE_WORD	n/a	n/a	WATCH	3	0	-1	[0, 0, 0]	n/a	0	0	0	n/a	n/a	0.0	0	0	0	FR3	3	R1154D
81.361	0.933	127144	PRACTICE_WORD_OFF	n/a	n/a	WATCH	-999	0	-1	[0, 0, 0]	n/a	0	0	0	n/a	n/a	0.0	0	0	0	FR3	3	R1154D
82.294	1.6	128077	PRACTICE_WORD	n/a	n/a	COTTON	4	0	-1	[0, 0, 0]	n/a	0	0	0	n/a	n/a	0.0	0	0	0	FR3	3	R1154D
83.912	0.833	129695	PRACTICE_WORD_OFF	n/a	n/a	COTTON	-999	0	-1	[0, 0, 0]	n/a	0	0	0	n/a	n/a	0.0	0	0	0	FR3	3	R1154D
84.745	1.6	130528	PRACTICE_WORD	n/a	n/a	WAGON	5	0	-1	[0, 0, 0]	n/a	0	0	0	n/a	n/a	0.0	0	0	0	FR3	3	R1154D
86.362	0.916	132145	PRACTICE_WORD_OFF	n/a	n/a	WAGON	-999	0	-1	[0, 0, 0]	n/a	0	0	0	n/a	n/a	0.0	0	0	0	FR3	3	R1154D
87.278	1.6	133061	PRACTICE_WORD	n/a	n/a	TONGUE	6	0	-1	[0, 0, 0]	n/a	0	0	0	n/a	n/a	0.0	0	0	0	FR3	3	R1154D
88.896	0.834	134678	PRACTICE_WORD_OFF	n/a	n/a	TONGUE	-999	0	-1	[0, 0, 0]	n/a	0	0	0	n/a	n/a	0.0	0	0	0	FR3	3	R1154D
89.73	1.6	135512	PRACTICE_WORD	n/a	n/a	ATTIC	7	0	-1	[0, 0, 0]	n/a	0	0	0	n/a	n/a	0.0	0	0	0	FR3	3	R1154D
91.347	1.0	137129	PRACTICE_WORD_OFF	n/a	n/a	ATTIC	-999	0	-1	[0, 0, 0]	n/a	0	0	0	n/a	n/a	0.0	0	0	0	FR3	3	R1154D
92.347	1.6	138129	PRACTICE_WORD	n/a	n/a	BEAM	8	0	-1	[0, 0, 0]	n/a	0	0	0	n/a	n/a	0.0	0	0	0	FR3	3	R1154D
93.964	0.9	139746	PRACTICE_WORD_OFF	n/a	n/a	BEAM	-999	0	-1	[0, 0, 0]	n/a	0	0	0	n/a	n/a	0.0	0	0	0	FR3	3	R1154D
94.864	1.6	140646	PRACTICE_WORD	n/a	n/a	RING	9	0	-1	[0, 0, 0]	n/a	0	0	0	n/a	n/a	0.0	0	0	0	FR3	3	R1154D
96.481	0.917	142263	PRACTICE_WORD_OFF	n/a	n/a	RING	-999	0	-1	[0, 0, 0]	n/a	0	0	0	n/a	n/a	0.0	0	0	0	FR3	3	R1154D
97.398	1.6	143180	PRACTICE_WORD	n/a	n/a	CHEST	10	0	-1	[0, 0, 0]	n/a	0	0	0	n/a	n/a	0.0	0	0	0	FR3	3	R1154D
99.015	0.983	144797	PRACTICE_WORD_OFF	n/a	n/a	CHEST	-999	0	-1	[0, 0, 0]	n/a	0	0	0	n/a	n/a	0.0	0	0	0	FR3	3	R1154D
99.998	1.6	145780	PRACTICE_WORD	n/a	n/a	CAMEL	11	0	-1	[0, 0, 0]	n/a	0	0	0	n/a	n/a	0.0	0	0	0	FR3	3	R1154D
101.615	0.784	147397	PRACTICE_WORD_OFF	n/a	n/a	CAMEL	-999	0	-1	[0, 0, 0]	n/a	0	0	0	n/a	n/a	0.0	0	0	0	FR3	3	R1154D
102.399	1.6	148181	PRACTICE_WORD	n/a	n/a	FLOOD	12	0	-1	[0, 0, 0]	n/a	0	0	0	n/a	n/a	0.0	0	0	0	FR3	3	R1154D
104.016	0.0	149798	PRACTICE_WORD_OFF	n/a	n/a	FLOOD	-999	0	-1	[0, 0, 0]	n/a	0	0	0	n/a	n/a	0.0	0	0	0	FR3	3	R1154D
104.016	0.0	149798	DISTRACT_START	n/a	n/a	n/a	-999	0	-1	[0, 0, 0]	n/a	0	0	0	n/a	n/a	0.0	0	0	0	FR3	3	R1154D
104.016	0.016	149798	START	n/a	n/a	n/a	-999	0	-1	[-999, -999, -999]	n/a	0	0	0	n/a	n/a	0.0	0	0	0	FR3	3	R1154D
104.032	2.767	149814	PROB	2.736	n/a	n/a	-999	0	-1	[7, 8, 4]	19	0	0	0	n/a	n/a	0.0	0	0	0	FR3	3	R1154D
106.799	1.967	152580	PROB	1.93	n/a	n/a	-999	0	-1	[9, 8, 4]	21	0	0	0	n/a	n/a	0.0	0	0	0	FR3	3	R1154D
108.766	3.618	154547	PROB	3.579	n/a	n/a	-999	0	-1	[9, 7, 8]	24	0	0	0	n/a	n/a	0.0	0	0	0	FR3	3	R1154D
112.384	2.117	158165	PROB	2.09	n/a	n/a	-999	0	-1	[9, 5, 6]	20	0	0	0	n/a	n/a	0.0	0	0	0	FR3	3	R1154D
114.501	1.682	160282	PROB	1.661	n/a	n/a	-999	0	-1	[2, 8, 5]	15	0	0	0	n/a	n/a	0.0	0	0	0	FR3	3	R1154D
116.183	2.302	161964	PROB	2.274	n/a	n/a	-999	0	-1	[6, 9, 1]	16	0	0	0	n/a	n/a	0.0	0	0	0	FR3	3	R1154D
118.485	2.65	164266	PROB	2.612	n/a	n/a	-999	0	-1	[7, 9, 7]	23	0	0	0	n/a	n/a	0.0	0	0	0	FR3	3	R1154D
121.135	1.517	166916	PROB	1.49	n/a	n/a	-999	0	-1	[2, 1, 2]	4	0	0	0	n/a	n/a	0.0	0	0	0	FR3	3	R1154D
122.652	2.556	168433	PROB	2.556	n/a	n/a	-999	0	-1	[2, 9, 3]	14	0	0	0	n/a	n/a	0.0	0	0	0	FR3	3	R1154D
125.208	0.01	170988	STOP	n/a	n/a	n/a	-999	0	-1	[-999, -999, -999]	n/a	0	0	0	n/a	n/a	0.0	0	0	0	FR3	3	R1154D
125.218	0.518	170998	DISTRACT_END	n/a	n/a	n/a	-999	0	-1	[0, 0, 0]	n/a	0	0	0	n/a	n/a	0.0	0	0	0	FR3	3	R1154D
125.736	0.5	171516	RETRIEVAL_ORIENT	n/a	n/a	n/a	-999	0	-1	[0, 0, 0]	n/a	0	0	0	n/a	n/a	0.0	0	0	0	FR3	3	R1154D
126.256	30.008	172036	PRACTICE_REC_START	n/a	n/a	n/a	-999	0	-1	[0, 0, 0]	n/a	0	0	0	n/a	n/a	0.0	0	0	0	FR3	3	R1154D
156.264	19.215	202043	PRACTICE_REC_END	n/a	n/a	n/a	-999	0	-1	[0, 0, 0]	n/a	0	0	0	n/a	n/a	0.0	0	0	0	FR3	3	R1154D
175.479	0.5	221257	TRIAL	n/a	n/a	n/a	-999	0	1	[0, 0, 0]	n/a	0	0	0	n/a	n/a	0.0	0	0	0	FR3	3	R1154D
175.979	10.0	221757	COUNTDOWN_START	n/a	n/a	n/a	-999	0	1	[0, 0, 0]	n/a	0	0	0	n/a	n/a	0.0	0	0	0	FR3	3	R1154D
186.407	0.007	232184	COUNTDOWN_END	n/a	n/a	n/a	-999	0	1	[0, 0, 0]	n/a	0	0	0	n/a	n/a	0.0	0	0	0	FR3	3	R1154D
186.414	1.6	232191	ORIENT	n/a	n/a	n/a	-999	0	1	[0, 0, 0]	n/a	0	0	0	n/a	n/a	0.0	0	0	0	FR3	3	R1154D
188.031	2.266	233808	ORIENT_OFF	n/a	n/a	n/a	-999	0	1	[0, 0, 0]	n/a	0	0	0	n/a	n/a	0.0	0	0	0	FR3	3	R1154D
190.297	1.6	236074	WORD	n/a	wordpools/wordpool.txt	TRAIN	1	1	1	[0, 0, 0]	n/a	0	0	0	n/a	n/a	0.0	0	0	0	FR3	3	R1154D
191.915	0.833	237692	WORD_OFF	n/a	n/a	TRAIN	1	0	1	[0, 0, 0]	n/a	0	0	0	n/a	n/a	0.0	0	0	0	FR3	3	R1154D
192.748	1.6	238525	WORD	n/a	wordpools/wordpool.txt	SLIME	2	0	1	[0, 0, 0]	n/a	0	0	0	n/a	n/a	0.0	0	0	0	FR3	3	R1154D
194.365	0.801	240142	WORD_OFF	n/a	n/a	SLIME	2	0	1	[0, 0, 0]	n/a	0	0	0	n/a	n/a	0.0	0	0	0	FR3	3	R1154D
195.166	1.6	240943	WORD	n/a	wordpools/wordpool.txt	SCHOOL	3	0	1	[0, 0, 0]	n/a	0	0	0	n/a	n/a	0.0	0	0	0	FR3	3	R1154D
196.782	0.934	242559	WORD_OFF	n/a	n/a	SCHOOL	3	0	1	[0, 0, 0]	n/a	0	0	0	n/a	n/a	0.0	0	0	0	FR3	3	R1154D
197.716	1.6	243493	WORD	n/a	wordpools/wordpool.txt	HAT	4	1	1	[0, 0, 0]	n/a	0	0	0	n/a	n/a	0.0	0	0	0	FR3	3	R1154D
199.333	0.933	245110	WORD_OFF	n/a	n/a	HAT	4	0	1	[0, 0, 0]	n/a	0	0	0	n/a	n/a	0.0	0	0	0	FR3	3	R1154D
200.266	1.6	246042	WORD	n/a	wordpools/wordpool.txt	FLEA	5	0	1	[0, 0, 0]	n/a	0	0	0	n/a	n/a	0.0	0	0	0	FR3	3	R1154D
201.867	0.9	247643	WORD_OFF	n/a	n/a	FLEA	5	0	1	[0, 0, 0]	n/a	0	0	0	n/a	n/a	0.0	0	0	0	FR3	3	R1154D
202.767	1.6	248543	WORD	n/a	wordpools/wordpool.txt	PIE	6	0	1	[0, 0, 0]	n/a	0	0	0	n/a	n/a	0.0	0	0	0	FR3	3	R1154D
204.384	0.899	250160	WORD_OFF	n/a	n/a	PIE	6	0	1	[0, 0, 0]	n/a	0	0	0	n/a	n/a	0.0	0	0	0	FR3	3	R1154D
205.283	1.6	251059	WORD	n/a	wordpools/wordpool.txt	CLOWN	7	0	1	[0, 0, 0]	n/a	0	0	0	n/a	n/a	0.0	0	0	0	FR3	3	R1154D
206.884	0.767	252660	WORD_OFF	n/a	n/a	CLOWN	7	0	1	[0, 0, 0]	n/a	0	0	0	n/a	n/a	0.0	0	0	0	FR3	3	R1154D
207.651	1.6	253427	WORD	n/a	wordpools/wordpool.txt	TOAST	8	1	1	[0, 0, 0]	n/a	0	0	0	n/a	n/a	0.0	0	0	0	FR3	3	R1154D
209.267	0.801	255043	WORD_OFF	n/a	n/a	TOAST	8	0	1	[0, 0, 0]	n/a	0	0	0	n/a	n/a	0.0	0	0	0	FR3	3	R1154D
210.068	1.6	255844	WORD	n/a	wordpools/wordpool.txt	CLOCK	9	0	1	[0, 0, 0]	n/a	0	0	0	n/a	n/a	0.0	0	0	0	FR3	3	R1154D
211.685	0.85	257461	WORD_OFF	n/a	n/a	CLOCK	9	0	1	[0, 0, 0]	n/a	0	0	0	n/a	n/a	0.0	0	0	0	FR3	3	R1154D
212.535	1.6	258311	WORD	n/a	wordpools/wordpool.txt	BADGE	10	1	1	[0, 0, 0]	n/a	0	0	0	n/a	n/a	0.0	0	0	0	FR3	3	R1154D
214.152	0.85	259928	WORD_OFF	n/a	n/a	BADGE	10	0	1	[0, 0, 0]	n/a	0	0	0	n/a	n/a	0.0	0	0	0	FR3	3	R1154D
215.002	1.6	260778	WORD	n/a	wordpools/wordpool.txt	SUIT	11	0	1	[0, 0, 0]	n/a	0	0	0	n/a	n/a	0.0	0	0	0	FR3	3	R1154D
216.619	0.867	262395	WORD_OFF	n/a	n/a	SUIT	11	0	1	[0, 0, 0]	n/a	0	0	0	n/a	n/a	0.0	0	0	0	FR3	3	R1154D
217.486	1.6	263262	WORD	n/a	wordpools/wordpool.txt	ROAD	12	0	1	[0, 0, 0]	n/a	0	0	0	n/a	n/a	0.0	0	0	0	FR3	3	R1154D
219.103	0.0	264878	DISTRACT_START	n/a	n/a	n/a	-999	0	1	[0, 0, 0]	n/a	0	0	0	n/a	n/a	0.0	0	0	0	FR3	3	R1154D
219.103	0.001	264878	WORD_OFF	n/a	n/a	ROAD	12	0	1	[0, 0, 0]	n/a	0	0	0	n/a	n/a	0.0	0	0	0	FR3	3	R1154D
219.104	0.016	264879	START	n/a	n/a	n/a	-999	0	1	[-999, -999, -999]	n/a	0	0	0	n/a	n/a	0.0	0	0	0	FR3	3	R1154D
219.12	2.884	264895	PROB	2.849	n/a	n/a	-999	0	1	[3, 9, 5]	17	0	0	0	n/a	n/a	0.0	0	0	0	FR3	3	R1154D
222.004	1.8	267779	PROB	1.773	n/a	n/a	-999	0	1	[6, 4, 4]	14	0	0	0	n/a	n/a	0.0	0	0	0	FR3	3	R1154D
223.804	2.034	269579	PROB	1.997	n/a	n/a	-999	0	1	[5, 9, 2]	16	0	0	0	n/a	n/a	0.0	0	0	0	FR3	3	R1154D
225.838	1.332	271613	PROB	1.299	n/a	n/a	-999	0	1	[1, 8, 2]	11	0	0	0	n/a	n/a	0.0	0	0	0	FR3	3	R1154D
227.17	1.552	272945	PROB	1.527	n/a	n/a	-999	0	1	[6, 2, 4]	12	0	0	0	n/a	n/a	0.0	0	0	0	FR3	3	R1154D
228.722	1.717	274497	PROB	1.688	n/a	n/a	-999	0	1	[8, 3, 7]	18	0	0	0	n/a	n/a	0.0	0	0	0	FR3	3	R1154D
230.439	2.15	276214	PROB	2.123	n/a	n/a	-999	0	1	[3, 1, 2]	6	0	0	0	n/a	n/a	0.0	0	0	0	FR3	3	R1154D
232.589	2.267	278364	PROB	2.237	n/a	n/a	-999	0	1	[7, 1, 6]	14	0	0	0	n/a	n/a	0.0	0	0	0	FR3	3	R1154D
234.856	2.701	280631	PROB	2.673	n/a	n/a	-999	0	1	[4, 9, 3]	16	0	0	0	n/a	n/a	0.0	0	0	0	FR3	3	R1154D
237.557	2.236	283331	PROB	2.236	n/a	n/a	-999	0	1	[4, 9, 2]	15	0	0	0	n/a	n/a	0.0	0	0	0	FR3	3	R1154D
239.793	0.014	285567	STOP	n/a	n/a	n/a	-999	0	1	[-999, -999, -999]	n/a	0	0	0	n/a	n/a	0.0	0	0	0	FR3	3	R1154D
239.807	0.55	285581	DISTRACT_END	n/a	n/a	n/a	-999	0	1	[0, 0, 0]	n/a	0	0	0	n/a	n/a	0.0	0	0	0	FR3	3	R1154D
240.357	0.5	286131	RETRIEVAL_ORIENT	n/a	n/a	n/a	-999	0	1	[0, 0, 0]	n/a	0	0	0	n/a	n/a	0.0	0	0	0	FR3	3	R1154D
240.875	1.827	286649	REC_START	n/a	n/a	n/a	-999	0	1	[0, 0, 0]	n/a	0	0	0	n/a	n/a	0.0	0	0	0	FR3	3	R1154D
242.702	0.709	288476	REC_WORD	1.827	n/a	BADGE	10	1	1	[0, 0, 0]	n/a	0	0	0	n/a	n/a	0.0	0	0	0	FR3	3	R1154D
243.411	0.549	289185	REC_WORD	2.536	n/a	HAT	4	1	1	[0, 0, 0]	n/a	0	0	0	n/a	n/a	0.0	0	0	0	FR3	3	R1154D
243.96	7.437	289734	REC_WORD	3.085	n/a	TRAIN	1	1	1	[0, 0, 0]	n/a	0	0	0	n/a	n/a	0.0	0	0	0	FR3	3	R1154D
251.397	9.325	297171	REC_WORD	10.522	n/a	TOAST	8	1	1	[0, 0, 0]	n/a	0	0	0	n/a	n/a	0.0	0	0	0	FR3	3	R1154D
260.722	10.162	306495	REC_WORD	19.847	n/a	PEA	-999	0	1	[0, 0, 0]	n/a	0	0	0	n/a	n/a	0.0	0	0	0	FR3	3	R1154D
270.884	4.328	316657	REC_END	n/a	n/a	n/a	-999	0	1	[0, 0, 0]	n/a	0	0	0	n/a	n/a	0.0	0	0	0	FR3	3	R1154D
275.212	0.5	320984	TRIAL	n/a	n/a	n/a	-999	0	2	[0, 0, 0]	n/a	0	0	0	n/a	n/a	0.0	0	0	0	FR3	3	R1154D
275.712	10.0	321484	COUNTDOWN_START	n/a	n/a	n/a	-999	0	2	[0, 0, 0]	n/a	0	0	0	n/a	n/a	0.0	0	0	0	FR3	3	R1154D
286.14	0.009	331912	COUNTDOWN_END	n/a	n/a	n/a	-999	0	2	[0, 0, 0]	n/a	0	0	0	n/a	n/a	0.0	0	0	0	FR3	3	R1154D
286.149	1.6	331921	ORIENT	n/a	n/a	n/a	-999	0	2	[0, 0, 0]	n/a	0	0	0	n/a	n/a	0.0	0	0	0	FR3	3	R1154D
287.766	2.133	333538	ORIENT_OFF	n/a	n/a	n/a	-999	0	2	[0, 0, 0]	n/a	0	0	0	n/a	n/a	0.0	0	0	0	FR3	3	R1154D
289.899	1.6	335671	WORD	n/a	wordpools/wordpool.txt	INK	1	1	2	[0, 0, 0]	n/a	0	0	0	n/a	n/a	0.0	0	0	0	FR3	3	R1154D
291.516	0.967	337288	WORD_OFF	n/a	n/a	INK	1	0	2	[0, 0, 0]	n/a	0	0	0	n/a	n/a	0.0	0	0	0	FR3	3	R1154D
292.483	1.6	338255	WORD	n/a	wordpools/wordpool.txt	PET	2	1	2	[0, 0, 0]	n/a	0	0	0	n/a	n/a	0.0	0	0	0	FR3	3	R1154D
294.1	0.85	339871	WORD_OFF	n/a	n/a	PET	2	0	2	[0, 0, 0]	n/a	0	0	0	n/a	n/a	0.0	0	0	0	FR3	3	R1154D
294.95	1.6	340721	WORD	n/a	wordpools/wordpool.txt	SHIP	3	0	2	[0, 0, 0]	n/a	0	0	0	n/a	n/a	0.0	0	0	0	FR3	3	R1154D
296.567	0.901	342338	WORD_OFF	n/a	n/a	SHIP	3	0	2	[0, 0, 0]	n/a	0	0	0	n/a	n/a	0.0	0	0	0	FR3	3	R1154D
297.468	1.6	343239	WORD	n/a	wordpools/wordpool.txt	MOOSE	4	0	2	[0, 0, 0]	n/a	0	0	0	n/a	n/a	0.0	0	0	0	FR3	3	R1154D
299.084	0.784	344855	WORD_OFF	n/a	n/a	MOOSE	4	0	2	[0, 0, 0]	n/a	0	0	0	n/a	n/a	0.0	0	0	0	FR3	3	R1154D
299.868	1.6	345639	WORD	n/a	wordpools/wordpool.txt	HOUSE	5	0	2	[0, 0, 0]	n/a	0	0	0	n/a	n/a	0.0	0	0	0	FR3	3	R1154D
301.485	0.917	347256	WORD_OFF	n/a	n/a	HOUSE	5	0	2	[0, 0, 0]	n/a	0	0	0	n/a	n/a	0.0	0	0	0	FR3	3	R1154D
302.402	1.6	348173	WORD	n/a	wordpools/wordpool.txt	MAIL	6	0	2	[0, 0, 0]	n/a	0	0	0	n/a	n/a	0.0	0	0	0	FR3	3	R1154D
304.019	0.817	349790	WORD_OFF	n/a	n/a	MAIL	6	0	2	[0, 0, 0]	n/a	0	0	0	n/a	n/a	0.0	0	0	0	FR3	3	R1154D
304.836	1.6	350607	WORD	n/a	wordpools/wordpool.txt	KEY	7	0	2	[0, 0, 0]	n/a	0	0	0	n/a	n/a	0.0	0	0	0	FR3	3	R1154D
306.452	0.833	352223	WORD_OFF	n/a	n/a	KEY	7	0	2	[0, 0, 0]	n/a	0	0	0	n/a	n/a	0.0	0	0	0	FR3	3	R1154D
307.285	1.6	353056	WORD	n/a	wordpools/wordpool.txt	PEARL	8	0	2	[0, 0, 0]	n/a	0	0	0	n/a	n/a	0.0	0	0	0	FR3	3	R1154D
308.903	0.833	354674	WORD_OFF	n/a	n/a	PEARL	8	0	2	[0, 0, 0]	n/a	0	0	0	n/a	n/a	0.0	0	0	0	FR3	3	R1154D
309.736	1.6	355507	WORD	n/a	wordpools/wordpool.txt	STORE	9	0	2	[0, 0, 0]	n/a	0	0	0	n/a	n/a	0.0	0	0	0	FR3	3	R1154D
311.353	0.984	357124	WORD_OFF	n/a	n/a	STORE	9	0	2	[0, 0, 0]	n/a	0	0	0	n/a	n/a	0.0	0	0	0	FR3	3	R1154D
312.337	1.6	358107	WORD	n/a	wordpools/wordpool.txt	JAIL	10	0	2	[0, 0, 0]	n/a	0	0	0	n/a	n/a	0.0	0	0	0	FR3	3	R1154D
313.954	0.8	359724	WORD_OFF	n/a	n/a	JAIL	10	0	2	[0, 0, 0]	n/a	0	0	0	n/a	n/a	0.0	0	0	0	FR3	3	R1154D
314.754	1.6	360524	WORD	n/a	wordpools/wordpool.txt	MAP	11	0	2	[0, 0, 0]	n/a	0	0	0	n/a	n/a	0.0	0	0	0	FR3	3	R1154D
316.371	0.95	362141	WORD_OFF	n/a	n/a	MAP	11	0	2	[0, 0, 0]	n/a	0	0	0	n/a	n/a	0.0	0	0	0	FR3	3	R1154D
317.321	1.6	363091	WORD	n/a	wordpools/wordpool.txt	BAND	12	1	2	[0, 0, 0]	n/a	0	0	0	n/a	n/a	0.0	0	0	0	FR3	3	R1154D
318.938	0.0	364708	WORD_OFF	n/a	n/a	BAND	12	0	2	[0, 0, 0]	n/a	0	0	0	n/a	n/a	0.0	0	0	0	FR3	3	R1154D
318.938	0.001	364708	DISTRACT_START	n/a	n/a	n/a	-999	0	2	[0, 0, 0]	n/a	0	0	0	n/a	n/a	0.0	0	0	0	FR3	3	R1154D
318.939	0.016	364709	START	n/a	n/a	n/a	-999	0	2	[-999, -999, -999]	n/a	0	0	0	n/a	n/a	0.0	0	0	0	FR3	3	R1154D
318.955	2.067	364725	PROB	2.038	n/a	n/a	-999	0	2	[5, 1, 6]	12	0	0	0	n/a	n/a	0.0	0	0	0	FR3	3	R1154D
321.022	1.467	366792	PROB	1.428	n/a	n/a	-999	0	2	[2, 6, 3]	11	0	0	0	n/a	n/a	0.0	0	0	0	FR3	3	R1154D
322.489	1.517	368259	PROB	1.48	n/a	n/a	-999	0	2	[4, 8, 2]	14	0	0	0	n/a	n/a	0.0	0	0	0	FR3	3	R1154D
324.006	1.232	369776	PROB	1.201	n/a	n/a	-999	0	2	[7, 3, 1]	11	0	0	0	n/a	n/a	0.0	0	0	0	FR3	3	R1154D
325.238	2.352	371008	PROB	2.322	n/a	n/a	-999	0	2	[3, 8, 1]	12	0	0	0	n/a	n/a	0.0	0	0	0	FR3	3	R1154D
327.59	3.2	373360	PROB	3.163	n/a	n/a	-999	0	2	[3, 8, 5]	16	0	0	0	n/a	n/a	0.0	0	0	0	FR3	3	R1154D
330.79	2.217	376559	PROB	2.188	n/a	n/a	-999	0	2	[3, 7, 9]	19	0	0	0	n/a	n/a	0.0	0	0	0	FR3	3	R1154D
333.007	3.167	378776	PROB	3.139	n/a	n/a	-999	0	2	[6, 5, 6]	17	0	0	0	n/a	n/a	0.0	0	0	0	FR3	3	R1154D
336.174	2.451	381943	PROB	2.419	n/a	n/a	-999	0	2	[2, 5, 7]	14	0	0	0	n/a	n/a	0.0	0	0	0	FR3	3	R1154D
338.625	1.945	384394	PROB	1.945	n/a	n/a	-999	0	2	[4, 5, 9]	1	0	0	0	n/a	n/a	0.0	0	0	0	FR3	3	R1154D
340.57	0.022	386339	STOP	n/a	n/a	n/a	-999	0	2	[-999, -999, -999]	n/a	0	0	0	n/a	n/a	0.0	0	0	0	FR3	3	R1154D
340.592	0.666	386361	DISTRACT_END	n/a	n/a	n/a	-999	0	2	[0, 0, 0]	n/a	0	0	0	n/a	n/a	0.0	0	0	0	FR3	3	R1154D
341.258	0.5	387027	RETRIEVAL_ORIENT	n/a	n/a	n/a	-999	0	2	[0, 0, 0]	n/a	0	0	0	n/a	n/a	0.0	0	0	0	FR3	3	R1154D
341.776	1.117	387545	REC_START	n/a	n/a	n/a	-999	0	2	[0, 0, 0]	n/a	0	0	0	n/a	n/a	0.0	0	0	0	FR3	3	R1154D
342.893	2.76	388662	REC_WORD_VV	1.117	n/a	<>	-999	0	2	[0, 0, 0]	n/a	0	0	0	n/a	n/a	0.0	0	0	0	FR3	3	R1154D
345.653	4.16	391422	REC_WORD	3.877	n/a	PET	2	1	2	[0, 0, 0]	n/a	0	0	0	n/a	n/a	0.0	0	0	0	FR3	3	R1154D
349.813	1.281	395581	REC_WORD	8.037	n/a	BAND	12	1	2	[0, 0, 0]	n/a	0	0	0	n/a	n/a	0.0	0	0	0	FR3	3	R1154D
351.094	17.622	396862	REC_WORD	9.318	n/a	INK	1	1	2	[0, 0, 0]	n/a	0	0	0	n/a	n/a	0.0	0	0	0	FR3	3	R1154D
368.716	1.0	414483	REC_WORD_VV	26.94	n/a	<>	-999	0	2	[0, 0, 0]	n/a	0	0	0	n/a	n/a	0.0	0	0	0	FR3	3	R1154D
369.716	1.0	415483	REC_WORD_VV	27.94	n/a	<>	-999	0	2	[0, 0, 0]	n/a	0	0	0	n/a	n/a	0.0	0	0	0	FR3	3	R1154D
370.716	1.0	416483	REC_WORD_VV	28.94	n/a	<>	-999	0	2	[0, 0, 0]	n/a	0	0	0	n/a	n/a	0.0	0	0	0	FR3	3	R1154D
371.716	0.071	417483	REC_WORD_VV	29.94	n/a	<>	-999	0	2	[0, 0, 0]	n/a	0	0	0	n/a	n/a	0.0	0	0	0	FR3	3	R1154D
371.787	814.442	417554	REC_END	n/a	n/a	n/a	-999	0	2	[0, 0, 0]	n/a	0	0	0	n/a	n/a	0.0	0	0	0	FR3	3	R1154D
1186.229	0.5	1231953	TRIAL	n/a	n/a	n/a	-999	0	3	[0, 0, 0]	n/a	0	0	0	n/a	n/a	0.0	0	0	0	FR3	3	R1154D
1186.729	10.0	1232453	COUNTDOWN_START	n/a	n/a	n/a	-999	0	3	[0, 0, 0]	n/a	0	0	0	n/a	n/a	0.0	0	0	0	FR3	3	R1154D
1197.157	0.008	1242880	COUNTDOWN_END	n/a	n/a	n/a	-999	0	3	[0, 0, 0]	n/a	0	0	0	n/a	n/a	0.0	0	0	0	FR3	3	R1154D
1197.165	1.6	1242888	ORIENT	n/a	n/a	n/a	-999	0	3	[0, 0, 0]	n/a	0	0	0	n/a	n/a	0.0	0	0	0	FR3	3	R1154D
1198.782	1.884	1244505	ORIENT_OFF	n/a	n/a	n/a	-999	0	3	[0, 0, 0]	n/a	0	0	0	n/a	n/a	0.0	0	0	0	FR3	3	R1154D
1200.666	1.6	1246389	WORD	n/a	wordpools/wordpool.txt	BAT	1	1	3	[0, 0, 0]	n/a	0	0	0	n/a	n/a	0.0	0	0	0	FR3	3	R1154D
1202.282	1.016	1248005	WORD_OFF	n/a	n/a	BAT	1	0	3	[0, 0, 0]	n/a	0	0	0	n/a	n/a	0.0	0	0	0	FR3	3	R1154D
1203.298	1.6	1249021	WORD	n/a	wordpools/wordpool.txt	WALL	2	0	3	[0, 0, 0]	n/a	0	0	0	n/a	n/a	0.0	0	0	0	FR3	3	R1154D
1204.916	0.95	1250639	WORD_OFF	n/a	n/a	WALL	2	0	3	[0, 0, 0]	n/a	0	0	0	n/a	n/a	0.0	0	0	0	FR3	3	R1154D
1205.866	1.6	1251589	WORD	n/a	wordpools/wordpool.txt	HOOF	3	0	3	[0, 0, 0]	n/a	0	0	0	n/a	n/a	0.0	0	0	0	FR3	3	R1154D
1207.483	0.967	1253206	WORD_OFF	n/a	n/a	HOOF	3	0	3	[0, 0, 0]	n/a	0	0	0	n/a	n/a	0.0	0	0	0	FR3	3	R1154D
1208.45	1.6	1254172	WORD	n/a	wordpools/wordpool.txt	NET	4	1	3	[0, 0, 0]	n/a	0	0	0	n/a	n/a	0.0	0	0	0	FR3	3	R1154D
1210.067	0.867	1255789	WORD_OFF	n/a	n/a	NET	4	0	3	[0, 0, 0]	n/a	0	0	0	n/a	n/a	0.0	0	0	0	FR3	3	R1154D
1210.934	1.6	1256656	WORD	n/a	wordpools/wordpool.txt	SALT	5	1	3	[0, 0, 0]	n/a	0	0	0	n/a	n/a	0.0	0	0	0	FR3	3	R1154D
1212.551	0.983	1258273	WORD_OFF	n/a	n/a	SALT	5	0	3	[0, 0, 0]	n/a	0	0	0	n/a	n/a	0.0	0	0	0	FR3	3	R1154D
1213.534	1.6	1259256	WORD	n/a	wordpools/wordpool.txt	BALL	6	0	3	[0, 0, 0]	n/a	0	0	0	n/a	n/a	0.0	0	0	0	FR3	3	R1154D
1215.152	0.783	1260874	WORD_OFF	n/a	n/a	BALL	6	0	3	[0, 0, 0]	n/a	0	0	0	n/a	n/a	0.0	0	0	0	FR3	3	R1154D
1215.935	1.6	1261657	WORD	n/a	wordpools/wordpool.txt	SHEET	7	0	3	[0, 0, 0]	n/a	0	0	0	n/a	n/a	0.0	0	0	0	FR3	3	R1154D
1217.552	0.85	1263274	WORD_OFF	n/a	n/a	SHEET	7	0	3	[0, 0, 0]	n/a	0	0	0	n/a	n/a	0.0	0	0	0	FR3	3	R1154D
1218.402	1.6	1264124	WORD	n/a	wordpools/wordpool.txt	HOSE	8	0	3	[0, 0, 0]	n/a	0	0	0	n/a	n/a	0.0	0	0	0	FR3	3	R1154D
1220.019	0.884	1265741	WORD_OFF	n/a	n/a	HOSE	8	0	3	[0, 0, 0]	n/a	0	0	0	n/a	n/a	0.0	0	0	0	FR3	3	R1154D
1220.903	1.6	1266625	WORD	n/a	wordpools/wordpool.txt	GRASS	9	0	3	[0, 0, 0]	n/a	0	0	0	n/a	n/a	0.0	0	0	0	FR3	3	R1154D
1222.52	0.85	1268242	WORD_OFF	n/a	n/a	GRASS	9	0	3	[0, 0, 0]	n/a	0	0	0	n/a	n/a	0.0	0	0	0	FR3	3	R1154D
1223.37	1.6	1269092	WORD	n/a	wordpools/wordpool.txt	FRUIT	10	1	3	[0, 0, 0]	n/a	0	0	0	n/a	n/a	0.0	0	0	0	FR3	3	R1154D
1224.987	1.0	1270709	WORD_OFF	n/a	n/a	FRUIT	10	0	3	[0, 0, 0]	n/a	0	0	0	n/a	n/a	0.0	0	0	0	FR3	3	R1154D
1225.987	1.6	1271709	WORD	n/a	wordpools/wordpool.txt	PARK	11	1	3	[0, 0, 0]	n/a	0	0	0	n/a	n/a	0.0	0	0	0	FR3	3	R1154D
1227.604	0.9	1273325	WORD_OFF	n/a	n/a	PARK	11	0	3	[0, 0, 0]	n/a	0	0	0	n/a	n/a	0.0	0	0	0	FR3	3	R1154D
1228.504	1.6	1274225	WORD	n/a	wordpools/wordpool.txt	SOAP	12	0	3	[0, 0, 0]	n/a	0	0	0	n/a	n/a	0.0	0	0	0	FR3	3	R1154D
1230.121	0.0	1275842	DISTRACT_START	n/a	n/a	n/a	-999	0	3	[0, 0, 0]	n/a	0	0	0	n/a	n/a	0.0	0	0	0	FR3	3	R1154D
1230.121	0.001	1275842	WORD_OFF	n/a	n/a	SOAP	12	0	3	[0, 0, 0]	n/a	0	0	0	n/a	n/a	0.0	0	0	0	FR3	3	R1154D
1230.122	0.016	1275843	START	n/a	n/a	n/a	-999	0	3	[-999, -999, -999]	n/a	0	0	0	n/a	n/a	0.0	0	0	0	FR3	3	R1154D
1230.138	2.767	1275859	PROB	2.735	n/a	n/a	-999	0	3	[8, 3, 8]	19	0	0	0	n/a	n/a	0.0	0	0	0	FR3	3	R1154D
1232.905	1.1	1278626	PROB	1.071	n/a	n/a	-999	0	3	[5, 5, 1]	11	0	0	0	n/a	n/a	0.0	0	0	0	FR3	3	R1154D
1234.005	1.767	1279726	PROB	1.741	n/a	n/a	-999	0	3	[2, 2, 5]	9	0	0	0	n/a	n/a	0.0	0	0	0	FR3	3	R1154D
1235.772	1.867	1281493	PROB	1.838	n/a	n/a	-999	0	3	[6, 7, 2]	15	0	0	0	n/a	n/a	0.0	0	0	0	FR3	3	R1154D
1237.639	3.25	1283360	PROB	3.219	n/a	n/a	-999	0	3	[6, 8, 7]	21	0	0	0	n/a	n/a	0.0	0	0	0	FR3	3	R1154D
1240.889	1.534	1286610	PROB	1.504	n/a	n/a	-999	0	3	[7, 1, 1]	9	0	0	0	n/a	n/a	0.0	0	0	0	FR3	3	R1154D
1242.423	2.351	1288144	PROB	2.314	n/a	n/a	-999	0	3	[3, 1, 6]	10	0	0	0	n/a	n/a	0.0	0	0	0	FR3	3	R1154D
1244.774	2.883	1290495	PROB	2.852	n/a	n/a	-999	0	3	[4, 3, 2]	9	0	0	0	n/a	n/a	0.0	0	0	0	FR3	3	R1154D
1247.657	3.223	1293377	PROB	3.223	n/a	n/a	-999	0	3	[4, 8, 5]	17	0	0	0	n/a	n/a	0.0	0	0	0	FR3	3	R1154D
1250.88	0.011	1296600	STOP	n/a	n/a	n/a	-999	0	3	[-999, -999, -999]	n/a	0	0	0	n/a	n/a	0.0	0	0	0	FR3	3	R1154D
1250.891	0.65	1296611	DISTRACT_END	n/a	n/a	n/a	-999	0	3	[0, 0, 0]	n/a	0	0	0	n/a	n/a	0.0	0	0	0	FR3	3	R1154D
1251.541	0.5	1297261	RETRIEVAL_ORIENT	n/a	n/a	n/a	-999	0	3	[0, 0, 0]	n/a	0	0	0	n/a	n/a	0.0	0	0	0	FR3	3	R1154D
1252.059	0.844	1297779	REC_START	n/a	n/a	n/a	-999	0	3	[0, 0, 0]	n/a	0	0	0	n/a	n/a	0.0	0	0	0	FR3	3	R1154D
1252.903	0.606	1298623	REC_WORD	0.844	n/a	BAT	1	1	3	[0, 0, 0]	n/a	0	0	0	n/a	n/a	0.0	0	0	0	FR3	3	R1154D
1253.509	0.619	1299229	REC_WORD	1.45	n/a	PARK	11	1	3	[0, 0, 0]	n/a	0	0	0	n/a	n/a	0.0	0	0	0	FR3	3	R1154D
1254.128	0.583	1299848	REC_WORD	2.069	n/a	FRUIT	10	1	3	[0, 0, 0]	n/a	0	0	0	n/a	n/a	0.0	0	0	0	FR3	3	R1154D
1254.711	1.487	1300431	REC_WORD	2.652	n/a	SALT	5	1	3	[0, 0, 0]	n/a	0	0	0	n/a	n/a	0.0	0	0	0	FR3	3	R1154D
1256.198	9.46	1301918	REC_WORD	4.139	n/a	NET	4	1	3	[0, 0, 0]	n/a	0	0	0	n/a	n/a	0.0	0	0	0	FR3	3	R1154D
1265.658	16.412	1311377	REC_WORD	13.599	n/a	PARK	11	1	3	[0, 0, 0]	n/a	0	0	0	n/a	n/a	0.0	0	0	0	FR3	3	R1154D
1282.07	4.16	1327789	REC_END	n/a	n/a	n/a	-999	0	3	[0, 0, 0]	n/a	0	0	0	n/a	n/a	0.0	0	0	0	FR3	3	R1154D
1286.23	0.5	1331948	TRIAL	n/a	n/a	n/a	-999	0	4	[0, 0, 0]	n/a	0	1	0	n/a	n/a	0.0	0	0	0	FR3	3	R1154D
1286.73	10.0	1332448	COUNTDOWN_START	n/a	n/a	n/a	-999	0	4	[0, 0, 0]	n/a	0	1	0	n/a	n/a	0.0	0	0	0	FR3	3	R1154D
1297.158	0.008	1342876	COUNTDOWN_END	n/a	n/a	n/a	-999	0	4	[0, 0, 0]	n/a	0	1	0	n/a	n/a	0.0	0	0	0	FR3	3	R1154D
1297.166	1.6	1342884	ORIENT	n/a	n/a	n/a	-999	0	4	[0, 0, 0]	n/a	0	1	0	n/a	n/a	0.0	0	0	0	FR3	3	R1154D
1298.783	2.251	1344501	ORIENT_OFF	n/a	n/a	n/a	-999	0	4	[0, 0, 0]	n/a	0	1	0	n/a	n/a	0.0	0	0	0	FR3	3	R1154D
1301.034	1.6	1346752	WORD	n/a	wordpools/wordpool.txt	BRUSH	1	1	4	[0, 0, 0]	n/a	0	1	0	n/a	n/a	0.0	0	0	0	FR3	3	R1154D
1302.651	0.933	1348368	WORD_OFF	n/a	n/a	BRUSH	1	0	4	[0, 0, 0]	n/a	0	1	0	n/a	n/a	0.0	0	0	0	FR3	3	R1154D
1303.584	1.6	1349301	WORD	n/a	wordpools/wordpool.txt	HAWK	2	1	4	[0, 0, 0]	n/a	0	1	0	n/a	n/a	0.0	0	0	0	FR3	3	R1154D
1305.2	0.968	1350917	WORD_OFF	n/a	n/a	HAWK	2	0	4	[0, 0, 0]	n/a	0	1	0	n/a	n/a	0.0	0	0	0	FR3	3	R1154D
1306.168	1.6	1351885	WORD	n/a	wordpools/wordpool.txt	POND	3	0	4	[0, 0, 0]	n/a	0	1	0	n/a	n/a	0.0	0	0	0	FR3	3	R1154D
1307.68	0.0	1353397	STIM_ON	n/a	n/a	POND	3	0	4	[0, 0, 0]	n/a	1	1	500	LTCG29	LTCG30	1000.0	200	100	300	FR3	3	R1154D
1307.785	0.395	1353502	WORD_OFF	n/a	n/a	POND	3	0	4	[0, 0, 0]	n/a	1	1	500	LTCG29	LTCG30	1000.0	200	100	300	FR3	3	R1154D
1308.18	0.388	1353897	STIM_OFF	n/a	n/a	n/a	3	0	4	[0, 0, 0]	n/a	0	1	500	LTCG29	LTCG30	1000.0	200	100	300	FR3	3	R1154D
1308.568	1.6	1354285	WORD	n/a	wordpools/wordpool.txt	THUMB	4	0	4	[0, 0, 0]	n/a	0	1	0	n/a	n/a	0.0	0	0	0	FR3	3	R1154D
1310.185	0.867	1355902	WORD_OFF	n/a	n/a	THUMB	4	0	4	[0, 0, 0]	n/a	0	1	0	n/a	n/a	0.0	0	0	0	FR3	3	R1154D
1311.052	1.6	1356769	WORD	n/a	wordpools/wordpool.txt	RAKE	5	0	4	[0, 0, 0]	n/a	0	1	0	n/a	n/a	0.0	0	0	0	FR3	3	R1154D
1312.669	0.9	1358386	WORD_OFF	n/a	n/a	RAKE	5	0	4	[0, 0, 0]	n/a	0	1	0	n/a	n/a	0.0	0	0	0	FR3	3	R1154D
1313.569	1.6	1359286	WORD	n/a	wordpools/wordpool.txt	BEAK	6	1	4	[0, 0, 0]	n/a	0	1	0	n/a	n/a	0.0	0	0	0	FR3	3	R1154D
1315.185	1.001	1360902	WORD_OFF	n/a	n/a	BEAK	6	0	4	[0, 0, 0]	n/a	0	1	0	n/a	n/a	0.0	0	0	0	FR3	3	R1154D
1316.186	1.6	1361903	WORD	n/a	wordpools/wordpool.txt	HOOK	7	0	4	[0, 0, 0]	n/a	0	1	0	n/a	n/a	0.0	0	0	0	FR3	3	R1154D
1317.699	0.0	1363416	STIM_ON	n/a	n/a	HOOK	7	0	4	[0, 0, 0]	n/a	1	1	500	LTCG29	LTCG30	1000.0	200	100	300	FR3	3	R1154D
1317.804	0.395	1363521	WORD_OFF	n/a	n/a	HOOK	7	0	4	[0, 0, 0]	n/a	1	1	500	LTCG29	LTCG30	1000.0	200	100	300	FR3	3	R1154D
1318.199	0.571	1363916	STIM_OFF	n/a	n/a	n/a	7	0	4	[0, 0, 0]	n/a	0	1	500	LTCG29	LTCG30	1000.0	200	100	300	FR3	3	R1154D
1318.77	1.6	1364487	WORD	n/a	wordpools/wordpool.txt	BOAT	8	0	4	[0, 0, 0]	n/a	0	1	0	n/a	n/a	0.0	0	0	0	FR3	3	R1154D
1320.387	0.984	1366103	WORD_OFF	n/a	n/a	BOAT	8	0	4	[0, 0, 0]	n/a	0	1	0	n/a	n/a	0.0	0	0	0	FR3	3	R1154D
1321.371	1.6	1367087	WORD	n/a	wordpools/wordpool.txt	WORM	9	0	4	[0, 0, 0]	n/a	0	1	0	n/a	n/a	0.0	0	0	0	FR3	3	R1154D
1322.879	0.0	1368595	STIM_ON	n/a	n/a	WORM	9	0	4	[0, 0, 0]	n/a	1	1	500	LTCG29	LTCG30	1000.0	200	100	300	FR3	3	R1154D
1322.988	0.391	1368704	WORD_OFF	n/a	n/a	WORM	9	0	4	[0, 0, 0]	n/a	1	1	500	LTCG29	LTCG30	1000.0	200	100	300	FR3	3	R1154D
1323.379	0.442	1369095	STIM_OFF	n/a	n/a	n/a	9	0	4	[0, 0, 0]	n/a	0	1	500	LTCG29	LTCG30	1000.0	200	100	300	FR3	3	R1154D
1323.821	1.6	1369537	WORD	n/a	wordpools/wordpool.txt	DUCK	10	1	4	[0, 0, 0]	n/a	0	1	0	n/a	n/a	0.0	0	0	0	FR3	3	R1154D
1325.438	0.799	1371154	WORD_OFF	n/a	n/a	DUCK	10	0	4	[0, 0, 0]	n/a	0	1	0	n/a	n/a	0.0	0	0	0	FR3	3	R1154D
1326.237	1.6	1371953	WORD	n/a	wordpools/wordpool.txt	PIG	11	1	4	[0, 0, 0]	n/a	0	1	0	n/a	n/a	0.0	0	0	0	FR3	3	R1154D
1327.838	0.801	1373554	WORD_OFF	n/a	n/a	PIG	11	0	4	[0, 0, 0]	n/a	0	1	0	n/a	n/a	0.0	0	0	0	FR3	3	R1154D
1328.639	1.6	1374355	WORD	n/a	wordpools/wordpool.txt	CAPE	12	0	4	[0, 0, 0]	n/a	0	1	0	n/a	n/a	0.0	0	0	0	FR3	3	R1154D
1330.154	0.0	1375870	STIM_ON	n/a	n/a	CAPE	12	0	4	[0, 0, 0]	n/a	1	1	500	LTCG29	LTCG30	1000.0	200	100	300	FR3	3	R1154D
1330.255	0.0	1375971	WORD_OFF	n/a	n/a	CAPE	12	0	4	[0, 0, 0]	n/a	1	1	500	LTCG29	LTCG30	1000.0	200	100	300	FR3	3	R1154D
1330.255	0.001	1375971	DISTRACT_START	n/a	n/a	n/a	-999	0	4	[0, 0, 0]	n/a	1	1	500	LTCG29	LTCG30	1000.0	200	100	300	FR3	3	R1154D
1330.256	0.016	1375972	START	n/a	n/a	n/a	-999	0	4	[-999, -999, -999]	n/a	0	1	0	n/a	n/a	0.0	0	0	0	FR3	3	R1154D
1330.272	0.382	1375988	PROB	3.074	n/a	n/a	-999	0	4	[3, 5, 8]	16	0	1	0	n/a	n/a	0.0	0	0	0	FR3	3	R1154D
1330.654	2.719	1376370	STIM_OFF	n/a	n/a	n/a	-999	0	4	[0, 0, 0]	n/a	0	1	500	LTCG29	LTCG30	1000.0	200	100	300	FR3	3	R1154D
1333.373	1.65	1379089	PROB	1.628	n/a	n/a	-999	0	4	[1, 5, 8]	14	0	1	0	n/a	n/a	0.0	0	0	0	FR3	3	R1154D
1335.023	4.167	1380739	PROB	4.131	n/a	n/a	-999	0	4	[8, 4, 6]	18	0	1	0	n/a	n/a	0.0	0	0	0	FR3	3	R1154D
1339.19	2.034	1384905	PROB	1.995	n/a	n/a	-999	0	4	[6, 4, 7]	17	0	1	0	n/a	n/a	0.0	0	0	0	FR3	3	R1154D
1341.224	1.517	1386939	PROB	1.48	n/a	n/a	-999	0	4	[1, 5, 2]	8	0	1	0	n/a	n/a	0.0	0	0	0	FR3	3	R1154D
1342.741	1.901	1388456	PROB	1.876	n/a	n/a	-999	0	4	[9, 2, 6]	17	0	1	0	n/a	n/a	0.0	0	0	0	FR3	3	R1154D
1344.642	2.984	1390357	PROB	2.951	n/a	n/a	-999	0	4	[3, 1, 5]	9	0	1	0	n/a	n/a	0.0	0	0	0	FR3	3	R1154D
1347.626	1.8	1393341	PROB	1.767	n/a	n/a	-999	0	4	[8, 5, 5]	18	0	1	0	n/a	n/a	0.0	0	0	0	FR3	3	R1154D
1349.426	1.352	1395141	PROB	1.352	n/a	n/a	-999	0	4	[7, 1, 1]	9	0	1	0	n/a	n/a	0.0	0	0	0	FR3	3	R1154D
1350.778	0.015	1396493	STOP	n/a	n/a	n/a	-999	0	4	[-999, -999, -999]	n/a	0	1	0	n/a	n/a	0.0	0	0	0	FR3	3	R1154D
1350.793	0.666	1396508	DISTRACT_END	n/a	n/a	n/a	-999	0	4	[0, 0, 0]	n/a	0	1	0	n/a	n/a	0.0	0	0	0	FR3	3	R1154D
1351.459	0.5	1397174	RETRIEVAL_ORIENT	n/a	n/a	n/a	-999	0	4	[0, 0, 0]	n/a	0	1	0	n/a	n/a	0.0	0	0	0	FR3	3	R1154D
1351.977	0.842	1397692	REC_START	n/a	n/a	n/a	-999	0	4	[0, 0, 0]	n/a	0	1	0	n/a	n/a	0.0	0	0	0	FR3	3	R1154D
1352.819	0.593	1398534	REC_WORD	0.842	n/a	PIG	11	1	4	[0, 0, 0]	n/a	0	1	0	n/a	n/a	0.0	0	0	0	FR3	3	R1154D
1353.412	0.525	1399127	REC_WORD	1.435	n/a	DUCK	10	1	4	[0, 0, 0]	n/a	0	1	0	n/a	n/a	0.0	0	0	0	FR3	3	R1154D
1353.937	5.083	1399652	REC_WORD	1.96	n/a	HAWK	2	1	4	[0, 0, 0]	n/a	0	1	0	n/a	n/a	0.0	0	0	0	FR3	3	R1154D
1359.02	20.618	1404734	REC_WORD	7.043	n/a	BRUSH	1	1	4	[0, 0, 0]	n/a	0	1	0	n/a	n/a	0.0	0	0	0	FR3	3	R1154D
1379.638	2.351	1425351	REC_WORD	27.661	n/a	BEAK	6	1	4	[0, 0, 0]	n/a	0	1	0	n/a	n/a	0.0	0	0	0	FR3	3	R1154D
1381.989	4.394	1427702	REC_END	n/a	n/a	n/a	-999	0	4	[0, 0, 0]	n/a	0	1	0	n/a	n/a	0.0	0	0	0	FR3	3	R1154D
1386.383	0.5	1432096	TRIAL	n/a	n/a	n/a	-999	0	5	[0, 0, 0]	n/a	0	1	0	n/a	n/a	0.0	0	0	0	FR3	3	R1154D
1386.883	10.0	1432596	COUNTDOWN_START	n/a	n/a	n/a	-999	0	5	[0, 0, 0]	n/a	0	1	0	n/a	n/a	0.0	0	0	0	FR3	3	R1154D
1397.311	0.007	1443023	COUNTDOWN_END	n/a	n/a	n/a	-999	0	5	[0, 0, 0]	n/a	0	1	0	n/a	n/a	0.0	0	0	0	FR3	3	R1154D
1397.318	1.6	1443030	ORIENT	n/a	n/a	n/a	-999	0	5	[0, 0, 0]	n/a	0	1	0	n/a	n/a	0.0	0	0	0	FR3	3	R1154D
1398.935	2.15	1444647	ORIENT_OFF	n/a	n/a	n/a	-999	0	5	[0, 0, 0]	n/a	0	1	0	n/a	n/a	0.0	0	0	0	FR3	3	R1154D
1401.085	1.6	1446797	WORD	n/a	wordpools/wordpool.txt	LAWN	1	1	5	[0, 0, 0]	n/a	0	1	0	n/a	n/a	0.0	0	0	0	FR3	3	R1154D
1402.702	0.984	1448414	WORD_OFF	n/a	n/a	LAWN	1	0	5	[0, 0, 0]	n/a	0	1	0	n/a	n/a	0.0	0	0	0	FR3	3	R1154D
1403.686	1.6	1449398	WORD	n/a	wordpools/wordpool.txt	PLATE	2	0	5	[0, 0, 0]	n/a	0	1	0	n/a	n/a	0.0	0	0	0	FR3	3	R1154D
1405.302	0.983	1451014	WORD_OFF	n/a	n/a	PLATE	2	0	5	[0, 0, 0]	n/a	0	1	0	n/a	n/a	0.0	0	0	0	FR3	3	R1154D
1406.285	1.6	1451997	WORD	n/a	wordpools/wordpool.txt	LAMP	3	0	5	[0, 0, 0]	n/a	0	1	0	n/a	n/a	0.0	0	0	0	FR3	3	R1154D
1407.887	0.816	1453599	WORD_OFF	n/a	n/a	LAMP	3	0	5	[0, 0, 0]	n/a	0	1	0	n/a	n/a	0.0	0	0	0	FR3	3	R1154D
1408.703	1.6	1454415	WORD	n/a	wordpools/wordpool.txt	APE	4	0	5	[0, 0, 0]	n/a	0	1	0	n/a	n/a	0.0	0	0	0	FR3	3	R1154D
1410.217	0.0	1455929	STIM_ON	n/a	n/a	APE	4	0	5	[0, 0, 0]	n/a	1	1	500	LTCG29	LTCG30	1000.0	200	100	300	FR3	3	R1154D
1410.321	0.396	1456033	WORD_OFF	n/a	n/a	APE	4	0	5	[0, 0, 0]	n/a	1	1	500	LTCG29	LTCG30	1000.0	200	100	300	FR3	3	R1154D
1410.717	0.404	1456429	STIM_OFF	n/a	n/a	n/a	4	0	5	[0, 0, 0]	n/a	0	1	500	LTCG29	LTCG30	1000.0	200	100	300	FR3	3	R1154D
1411.121	1.6	1456833	WORD	n/a	wordpools/wordpool.txt	DRESS	5	1	5	[0, 0, 0]	n/a	0	1	0	n/a	n/a	0.0	0	0	0	FR3	3	R1154D
1412.738	0.9	1458450	WORD_OFF	n/a	n/a	DRESS	5	0	5	[0, 0, 0]	n/a	0	1	0	n/a	n/a	0.0	0	0	0	FR3	3	R1154D
1413.638	1.6	1459349	WORD	n/a	wordpools/wordpool.txt	JUICE	6	0	5	[0, 0, 0]	n/a	0	1	0	n/a	n/a	0.0	0	0	0	FR3	3	R1154D
1415.254	1.0	1460965	WORD_OFF	n/a	n/a	JUICE	6	0	5	[0, 0, 0]	n/a	0	1	0	n/a	n/a	0.0	0	0	0	FR3	3	R1154D
1416.254	1.6	1461965	WORD	n/a	wordpools/wordpool.txt	SPOON	7	1	5	[0, 0, 0]	n/a	0	1	0	n/a	n/a	0.0	0	0	0	FR3	3	R1154D
1417.77	0.0	1463481	STIM_ON	n/a	n/a	SPOON	7	1	5	[0, 0, 0]	n/a	1	1	500	LTCG29	LTCG30	1000.0	200	100	300	FR3	3	R1154D
1417.872	0.398	1463583	WORD_OFF	n/a	n/a	SPOON	7	0	5	[0, 0, 0]	n/a	1	1	500	LTCG29	LTCG30	1000.0	200	100	300	FR3	3	R1154D
1418.27	0.385	1463981	STIM_OFF	n/a	n/a	n/a	7	0	5	[0, 0, 0]	n/a	0	1	500	LTCG29	LTCG30	1000.0	200	100	300	FR3	3	R1154D
1418.655	1.6	1464366	WORD	n/a	wordpools/wordpool.txt	SOUP	8	1	5	[0, 0, 0]	n/a	0	1	0	n/a	n/a	0.0	0	0	0	FR3	3	R1154D
1420.271	0.868	1465982	WORD_OFF	n/a	n/a	SOUP	8	0	5	[0, 0, 0]	n/a	0	1	0	n/a	n/a	0.0	0	0	0	FR3	3	R1154D
1421.139	1.6	1466850	WORD	n/a	wordpools/wordpool.txt	RICE	9	0	5	[0, 0, 0]	n/a	0	1	0	n/a	n/a	0.0	0	0	0	FR3	3	R1154D
1422.756	0.984	1468467	WORD_OFF	n/a	n/a	RICE	9	0	5	[0, 0, 0]	n/a	0	1	0	n/a	n/a	0.0	0	0	0	FR3	3	R1154D
1423.74	1.6	1469451	WORD	n/a	wordpools/wordpool.txt	LEG	10	1	5	[0, 0, 0]	n/a	0	1	0	n/a	n/a	0.0	0	0	0	FR3	3	R1154D
1425.357	0.915	1471068	WORD_OFF	n/a	n/a	LEG	10	0	5	[0, 0, 0]	n/a	0	1	0	n/a	n/a	0.0	0	0	0	FR3	3	R1154D
1426.272	1.6	1471983	WORD	n/a	wordpools/wordpool.txt	CHAIR	11	0	5	[0, 0, 0]	n/a	0	1	0	n/a	n/a	0.0	0	0	0	FR3	3	R1154D
1427.89	0.984	1473601	WORD_OFF	n/a	n/a	CHAIR	11	0	5	[0, 0, 0]	n/a	0	1	0	n/a	n/a	0.0	0	0	0	FR3	3	R1154D
1428.874	1.6	1474585	WORD	n/a	wordpools/wordpool.txt	STREET	12	0	5	[0, 0, 0]	n/a	0	1	0	n/a	n/a	0.0	0	0	0	FR3	3	R1154D
1430.491	0.0	1476202	DISTRACT_START	n/a	n/a	n/a	-999	0	5	[0, 0, 0]	n/a	0	1	0	n/a	n/a	0.0	0	0	0	FR3	3	R1154D
1430.491	0.0	1476202	WORD_OFF	n/a	n/a	STREET	12	0	5	[0, 0, 0]	n/a	0	1	0	n/a	n/a	0.0	0	0	0	FR3	3	R1154D
1430.491	0.017	1476202	START	n/a	n/a	n/a	-999	0	5	[-999, -999, -999]	n/a	0	1	0	n/a	n/a	0.0	0	0	0	FR3	3	R1154D
1430.508	1.95	1476219	PROB	1.926	n/a	n/a	-999	0	5	[1, 2, 2]	5	0	1	0	n/a	n/a	0.0	0	0	0	FR3	3	R1154D
1432.458	1.684	1478168	PROB	1.656	n/a	n/a	-999	0	5	[6, 4, 6]	14	0	1	0	n/a	n/a	0.0	0	0	0	FR3	3	R1154D
1434.142	2.467	1479852	PROB	2.443	n/a	n/a	-999	0	5	[9, 4, 4]	17	0	1	0	n/a	n/a	0.0	0	0	0	FR3	3	R1154D
1436.609	2.367	1482319	PROB	2.329	n/a	n/a	-999	0	5	[7, 1, 7]	15	0	1	0	n/a	n/a	0.0	0	0	0	FR3	3	R1154D
1438.976	1.417	1484686	PROB	1.378	n/a	n/a	-999	0	5	[1, 1, 7]	9	0	1	0	n/a	n/a	0.0	0	0	0	FR3	3	R1154D
1440.393	1.967	1486103	PROB	1.944	n/a	n/a	-999	0	5	[6, 3, 1]	10	0	1	0	n/a	n/a	0.0	0	0	0	FR3	3	R1154D
1442.36	1.633	1488070	PROB	1.609	n/a	n/a	-999	0	5	[9, 2, 5]	16	0	1	0	n/a	n/a	0.0	0	0	0	FR3	3	R1154D
1443.993	1.651	1489703	PROB	1.617	n/a	n/a	-999	0	5	[8, 8, 2]	18	0	1	0	n/a	n/a	0.0	0	0	0	FR3	3	R1154D
1445.644	1.817	1491354	PROB	1.781	n/a	n/a	-999	0	5	[9, 4, 9]	22	0	1	0	n/a	n/a	0.0	0	0	0	FR3	3	R1154D
1447.461	2.3	1493171	PROB	2.268	n/a	n/a	-999	0	5	[7, 1, 2]	10	0	1	0	n/a	n/a	0.0	0	0	0	FR3	3	R1154D
1449.761	1.84	1495471	PROB	1.84	n/a	n/a	-999	0	5	[8, 1, 9]	18	0	1	0	n/a	n/a	0.0	0	0	0	FR3	3	R1154D
1451.601	0.01	1497310	STOP	n/a	n/a	n/a	-999	0	5	[-999, -999, -999]	n/a	0	1	0	n/a	n/a	0.0	0	0	0	FR3	3	R1154D
1451.611	0.65	1497320	DISTRACT_END	n/a	n/a	n/a	-999	0	5	[0, 0, 0]	n/a	0	1	0	n/a	n/a	0.0	0	0	0	FR3	3	R1154D
1452.261	0.5	1497970	RETRIEVAL_ORIENT	n/a	n/a	n/a	-999	0	5	[0, 0, 0]	n/a	0	1	0	n/a	n/a	0.0	0	0	0	FR3	3	R1154D
1452.779	1.576	1498488	REC_START	n/a	n/a	n/a	-999	0	5	[0, 0, 0]	n/a	0	1	0	n/a	n/a	0.0	0	0	0	FR3	3	R1154D
1454.355	0.809	1500064	REC_WORD	1.576	n/a	LAWN	1	1	5	[0, 0, 0]	n/a	0	1	0	n/a	n/a	0.0	0	0	0	FR3	3	R1154D
1455.164	0.76	1500873	REC_WORD	2.385	n/a	SOUP	8	1	5	[0, 0, 0]	n/a	0	1	0	n/a	n/a	0.0	0	0	0	FR3	3	R1154D
1455.924	1.0	1501633	REC_WORD	3.145	n/a	SALT	-999	0	5	[0, 0, 0]	n/a	0	1	0	n/a	n/a	0.0	0	0	0	FR3	3	R1154D
1456.924	0.637	1502633	REC_WORD_VV	4.145	n/a	<>	-999	0	5	[0, 0, 0]	n/a	0	1	0	n/a	n/a	0.0	0	0	0	FR3	3	R1154D
1457.561	1.573	1503270	REC_WORD	4.782	n/a	DRESS	5	1	5	[0, 0, 0]	n/a	0	1	0	n/a	n/a	0.0	0	0	0	FR3	3	R1154D
1459.134	5.045	1504843	REC_WORD	6.355	n/a	LEG	10	1	5	[0, 0, 0]	n/a	0	1	0	n/a	n/a	0.0	0	0	0	FR3	3	R1154D
1464.179	18.419	1509888	REC_WORD	11.4	n/a	SPOON	7	1	5	[0, 0, 0]	n/a	0	1	0	n/a	n/a	0.0	0	0	0	FR3	3	R1154D
1482.598	0.191	1528306	REC_WORD_VV	29.819	n/a	<>	-999	0	5	[0, 0, 0]	n/a	0	1	0	n/a	n/a	0.0	0	0	0	FR3	3	R1154D
1482.789	4.546	1528497	REC_END	n/a	n/a	n/a	-999	0	5	[0, 0, 0]	n/a	0	1	0	n/a	n/a	0.0	0	0	0	FR3	3	R1154D
1487.335	0.5	1533043	TRIAL	n/a	n/a	n/a	-999	0	6	[0, 0, 0]	n/a	0	0	0	n/a	n/a	0.0	0	0	0	FR3	3	R1154D
1487.835	10.0	1533543	COUNTDOWN_START	n/a	n/a	n/a	-999	0	6	[0, 0, 0]	n/a	0	0	0	n/a	n/a	0.0	0	0	0	FR3	3	R1154D
1498.263	0.006	1543970	COUNTDOWN_END	n/a	n/a	n/a	-999	0	6	[0, 0, 0]	n/a	0	0	0	n/a	n/a	0.0	0	0	0	FR3	3	R1154D
1498.269	1.6	1543976	ORIENT	n/a	n/a	n/a	-999	0	6	[0, 0, 0]	n/a	0	0	0	n/a	n/a	0.0	0	0	0	FR3	3	R1154D
1499.87	2.084	1545577	ORIENT_OFF	n/a	n/a	n/a	-999	0	6	[0, 0, 0]	n/a	0	0	0	n/a	n/a	0.0	0	0	0	FR3	3	R1154D
1501.954	1.6	1547661	WORD	n/a	wordpools/wordpool.txt	VEST	1	0	6	[0, 0, 0]	n/a	0	0	0	n/a	n/a	0.0	0	0	0	FR3	3	R1154D
1503.571	0.917	1549278	WORD_OFF	n/a	n/a	VEST	1	0	6	[0, 0, 0]	n/a	0	0	0	n/a	n/a	0.0	0	0	0	FR3	3	R1154D
1504.488	1.6	1550195	WORD	n/a	wordpools/wordpool.txt	HILL	2	0	6	[0, 0, 0]	n/a	0	0	0	n/a	n/a	0.0	0	0	0	FR3	3	R1154D
1506.105	0.85	1551812	WORD_OFF	n/a	n/a	HILL	2	0	6	[0, 0, 0]	n/a	0	0	0	n/a	n/a	0.0	0	0	0	FR3	3	R1154D
1506.955	1.6	1552662	WORD	n/a	wordpools/wordpool.txt	CALF	3	0	6	[0, 0, 0]	n/a	0	0	0	n/a	n/a	0.0	0	0	0	FR3	3	R1154D
1508.572	0.95	1554278	WORD_OFF	n/a	n/a	CALF	3	0	6	[0, 0, 0]	n/a	0	0	0	n/a	n/a	0.0	0	0	0	FR3	3	R1154D
1509.522	1.6	1555228	WORD	n/a	wordpools/wordpool.txt	GOAT	4	0	6	[0, 0, 0]	n/a	0	0	0	n/a	n/a	0.0	0	0	0	FR3	3	R1154D
1511.139	0.783	1556845	WORD_OFF	n/a	n/a	GOAT	4	0	6	[0, 0, 0]	n/a	0	0	0	n/a	n/a	0.0	0	0	0	FR3	3	R1154D
1511.922	1.6	1557628	WORD	n/a	wordpools/wordpool.txt	AXE	5	1	6	[0, 0, 0]	n/a	0	0	0	n/a	n/a	0.0	0	0	0	FR3	3	R1154D
1513.539	0.834	1559245	WORD_OFF	n/a	n/a	AXE	5	0	6	[0, 0, 0]	n/a	0	0	0	n/a	n/a	0.0	0	0	0	FR3	3	R1154D
1514.373	1.6	1560079	WORD	n/a	wordpools/wordpool.txt	STOVE	6	0	6	[0, 0, 0]	n/a	0	0	0	n/a	n/a	0.0	0	0	0	FR3	3	R1154D
1515.99	0.917	1561696	WORD_OFF	n/a	n/a	STOVE	6	0	6	[0, 0, 0]	n/a	0	0	0	n/a	n/a	0.0	0	0	0	FR3	3	R1154D
1516.907	1.6	1562613	WORD	n/a	wordpools/wordpool.txt	ELF	7	0	6	[0, 0, 0]	n/a	0	0	0	n/a	n/a	0.0	0	0	0	FR3	3	R1154D
1518.524	0.816	1564230	WORD_OFF	n/a	n/a	ELF	7	0	6	[0, 0, 0]	n/a	0	0	0	n/a	n/a	0.0	0	0	0	FR3	3	R1154D
1519.34	1.6	1565046	WORD	n/a	wordpools/wordpool.txt	SKI	8	0	6	[0, 0, 0]	n/a	0	0	0	n/a	n/a	0.0	0	0	0	FR3	3	R1154D
1520.957	0.867	1566663	WORD_OFF	n/a	n/a	SKI	8	0	6	[0, 0, 0]	n/a	0	0	0	n/a	n/a	0.0	0	0	0	FR3	3	R1154D
1521.824	1.6	1567530	WORD	n/a	wordpools/wordpool.txt	STAIR	9	0	6	[0, 0, 0]	n/a	0	0	0	n/a	n/a	0.0	0	0	0	FR3	3	R1154D
1523.441	0.934	1569147	WORD_OFF	n/a	n/a	STAIR	9	0	6	[0, 0, 0]	n/a	0	0	0	n/a	n/a	0.0	0	0	0	FR3	3	R1154D
1524.375	1.6	1570081	WORD	n/a	wordpools/wordpool.txt	MULE	10	1	6	[0, 0, 0]	n/a	0	0	0	n/a	n/a	0.0	0	0	0	FR3	3	R1154D
1525.992	1.0	1571697	WORD_OFF	n/a	n/a	MULE	10	0	6	[0, 0, 0]	n/a	0	0	0	n/a	n/a	0.0	0	0	0	FR3	3	R1154D
1526.992	1.6	1572697	WORD	n/a	wordpools/wordpool.txt	HORSE	11	0	6	[0, 0, 0]	n/a	0	0	0	n/a	n/a	0.0	0	0	0	FR3	3	R1154D
1528.609	0.767	1574314	WORD_OFF	n/a	n/a	HORSE	11	0	6	[0, 0, 0]	n/a	0	0	0	n/a	n/a	0.0	0	0	0	FR3	3	R1154D
1529.376	1.6	1575081	WORD	n/a	wordpools/wordpool.txt	PRINCE	12	0	6	[0, 0, 0]	n/a	0	0	0	n/a	n/a	0.0	0	0	0	FR3	3	R1154D
1530.993	0.0	1576698	WORD_OFF	n/a	n/a	PRINCE	12	0	6	[0, 0, 0]	n/a	0	0	0	n/a	n/a	0.0	0	0	0	FR3	3	R1154D
1530.993	0.0	1576698	DISTRACT_START	n/a	n/a	n/a	-999	0	6	[0, 0, 0]	n/a	0	0	0	n/a	n/a	0.0	0	0	0	FR3	3	R1154D
1530.993	0.016	1576698	START	n/a	n/a	n/a	-999	0	6	[-999, -999, -999]	n/a	0	0	0	n/a	n/a	0.0	0	0	0	FR3	3	R1154D
1531.009	2.417	1576714	PROB	2.393	n/a	n/a	-999	0	6	[1, 5, 6]	12	0	0	0	n/a	n/a	0.0	0	0	0	FR3	3	R1154D
1533.426	1.667	1579131	PROB	1.639	n/a	n/a	-999	0	6	[5, 1, 8]	14	0	0	0	n/a	n/a	0.0	0	0	0	FR3	3	R1154D
1535.093	1.634	1580798	PROB	1.596	n/a	n/a	-999	0	6	[5, 2, 1]	8	0	0	0	n/a	n/a	0.0	0	0	0	FR3	3	R1154D
1536.727	3.134	1582432	PROB	3.098	n/a	n/a	-999	0	6	[9, 8, 3]	20	0	0	0	n/a	n/a	0.0	0	0	0	FR3	3	R1154D
1539.861	1.55	1585566	PROB	1.523	n/a	n/a	-999	0	6	[9, 1, 2]	12	0	0	0	n/a	n/a	0.0	0	0	0	FR3	3	R1154D
1541.411	2.484	1587116	PROB	2.454	n/a	n/a	-999	0	6	[2, 8, 3]	13	0	0	0	n/a	n/a	0.0	0	0	0	FR3	3	R1154D
1543.895	2.617	1589600	PROB	2.578	n/a	n/a	-999	0	6	[9, 9, 7]	26	0	0	0	n/a	n/a	0.0	0	0	0	FR3	3	R1154D
1546.512	2.666	1592216	PROB	2.633	n/a	n/a	-999	0	6	[6, 7, 5]	17	0	0	0	n/a	n/a	0.0	0	0	0	FR3	3	R1154D
1549.178	1.601	1594882	PROB	1.574	n/a	n/a	-999	0	6	[8, 9, 1]	18	0	0	0	n/a	n/a	0.0	0	0	0	FR3	3	R1154D
1550.779	2.094	1596483	PROB	2.094	n/a	n/a	-999	0	6	[4, 1, 5]	10	0	0	0	n/a	n/a	0.0	0	0	0	FR3	3	R1154D
1552.873	0.007	1598577	STOP	n/a	n/a	n/a	-999	0	6	[-999, -999, -999]	n/a	0	0	0	n/a	n/a	0.0	0	0	0	FR3	3	R1154D
1552.88	0.517	1598584	DISTRACT_END	n/a	n/a	n/a	-999	0	6	[0, 0, 0]	n/a	0	0	0	n/a	n/a	0.0	0	0	0	FR3	3	R1154D
1553.397	0.5	1599101	RETRIEVAL_ORIENT	n/a	n/a	n/a	-999	0	6	[0, 0, 0]	n/a	0	0	0	n/a	n/a	0.0	0	0	0	FR3	3	R1154D
1553.914	4.207	1599618	REC_START	n/a	n/a	n/a	-999	0	6	[0, 0, 0]	n/a	0	0	0	n/a	n/a	0.0	0	0	0	FR3	3	R1154D
1558.121	0.228	1603825	REC_WORD_VV	4.207	n/a	<>	-999	0	6	[0, 0, 0]	n/a	0	0	0	n/a	n/a	0.0	0	0	0	FR3	3	R1154D
1558.349	0.787	1604053	REC_WORD	4.435	n/a	AXE	5	1	6	[0, 0, 0]	n/a	0	0	0	n/a	n/a	0.0	0	0	0	FR3	3	R1154D
1559.136	2.238	1604840	REC_WORD	5.222	n/a	ELK	-999	0	6	[0, 0, 0]	n/a	0	0	0	n/a	n/a	0.0	0	0	0	FR3	3	R1154D
1561.374	13.074	1607078	REC_WORD	7.46	n/a	MULE	10	1	6	[0, 0, 0]	n/a	0	0	0	n/a	n/a	0.0	0	0	0	FR3	3	R1154D
1574.448	9.476	1620151	REC_WORD_VV	20.534	n/a	<>	-999	0	6	[0, 0, 0]	n/a	0	0	0	n/a	n/a	0.0	0	0	0	FR3	3	R1154D
1583.924	4.378	1629626	REC_END	n/a	n/a	n/a	-999	0	6	[0, 0, 0]	n/a	0	0	0	n/a	n/a	0.0	0	0	0	FR3	3	R1154D
1588.302	0.5	1634004	TRIAL	n/a	n/a	n/a	-999	0	7	[0, 0, 0]	n/a	0	1	0	n/a	n/a	0.0	0	0	0	FR3	3	R1154D
1588.802	10.0	1634504	COUNTDOWN_START	n/a	n/a	n/a	-999	0	7	[0, 0, 0]	n/a	0	1	0	n/a	n/a	0.0	0	0	0	FR3	3	R1154D
1599.23	0.007	1644932	COUNTDOWN_END	n/a	n/a	n/a	-999	0	7	[0, 0, 0]	n/a	0	1	0	n/a	n/a	0.0	0	0	0	FR3	3	R1154D
1599.237	1.6	1644939	ORIENT	n/a	n/a	n/a	-999	0	7	[0, 0, 0]	n/a	0	1	0	n/a	n/a	0.0	0	0	0	FR3	3	R1154D
1600.855	1.917	1646556	ORIENT_OFF	n/a	n/a	n/a	-999	0	7	[0, 0, 0]	n/a	0	1	0	n/a	n/a	0.0	0	0	0	FR3	3	R1154D
1602.772	1.6	1648473	WORD	n/a	wordpools/wordpool.txt	CANE	1	0	7	[0, 0, 0]	n/a	0	1	0	n/a	n/a	0.0	0	0	0	FR3	3	R1154D
1604.295	0.0	1649996	STIM_ON	n/a	n/a	CANE	1	0	7	[0, 0, 0]	n/a	1	1	500	LTCG29	LTCG30	1000.0	200	100	300	FR3	3	R1154D
1604.389	0.406	1650090	WORD_OFF	n/a	n/a	CANE	1	0	7	[0, 0, 0]	n/a	1	1	500	LTCG29	LTCG30	1000.0	200	100	300	FR3	3	R1154D
1604.795	0.427	1650496	STIM_OFF	n/a	n/a	n/a	1	0	7	[0, 0, 0]	n/a	0	1	500	LTCG29	LTCG30	1000.0	200	100	300	FR3	3	R1154D
1605.222	1.6	1650923	WORD	n/a	wordpools/wordpool.txt	TRUCK	2	0	7	[0, 0, 0]	n/a	0	1	0	n/a	n/a	0.0	0	0	0	FR3	3	R1154D
1606.75	0.0	1652451	STIM_ON	n/a	n/a	TRUCK	2	0	7	[0, 0, 0]	n/a	1	1	500	LTCG29	LTCG30	1000.0	200	100	300	FR3	3	R1154D
1606.84	0.41	1652541	WORD_OFF	n/a	n/a	TRUCK	2	0	7	[0, 0, 0]	n/a	1	1	500	LTCG29	LTCG30	1000.0	200	100	300	FR3	3	R1154D
1607.25	0.607	1652951	STIM_OFF	n/a	n/a	n/a	2	0	7	[0, 0, 0]	n/a	0	1	500	LTCG29	LTCG30	1000.0	200	100	300	FR3	3	R1154D
1607.857	1.6	1653558	WORD	n/a	wordpools/wordpool.txt	BAG	3	0	7	[0, 0, 0]	n/a	0	1	0	n/a	n/a	0.0	0	0	0	FR3	3	R1154D
1609.474	0.949	1655175	WORD_OFF	n/a	n/a	BAG	3	0	7	[0, 0, 0]	n/a	0	1	0	n/a	n/a	0.0	0	0	0	FR3	3	R1154D
1610.423	1.6	1656124	WORD	n/a	wordpools/wordpool.txt	MILK	4	0	7	[0, 0, 0]	n/a	0	1	0	n/a	n/a	0.0	0	0	0	FR3	3	R1154D
1612.041	0.883	1657742	WORD_OFF	n/a	n/a	MILK	4	0	7	[0, 0, 0]	n/a	0	1	0	n/a	n/a	0.0	0	0	0	FR3	3	R1154D
1612.924	1.6	1658625	WORD	n/a	wordpools/wordpool.txt	STEAK	5	0	7	[0, 0, 0]	n/a	0	1	0	n/a	n/a	0.0	0	0	0	FR3	3	R1154D
1614.449	0.0	1660150	STIM_ON	n/a	n/a	STEAK	5	0	7	[0, 0, 0]	n/a	1	1	500	LTCG29	LTCG30	1000.0	200	100	300	FR3	3	R1154D
1614.541	0.408	1660242	WORD_OFF	n/a	n/a	STEAK	5	0	7	[0, 0, 0]	n/a	1	1	500	LTCG29	LTCG30	1000.0	200	100	300	FR3	3	R1154D
1614.949	0.576	1660650	STIM_OFF	n/a	n/a	n/a	5	0	7	[0, 0, 0]	n/a	0	1	500	LTCG29	LTCG30	1000.0	200	100	300	FR3	3	R1154D
1615.525	1.6	1661226	WORD	n/a	wordpools/wordpool.txt	WEED	6	0	7	[0, 0, 0]	n/a	0	1	0	n/a	n/a	0.0	0	0	0	FR3	3	R1154D
1617.142	0.933	1662843	WORD_OFF	n/a	n/a	WEED	6	0	7	[0, 0, 0]	n/a	0	1	0	n/a	n/a	0.0	0	0	0	FR3	3	R1154D
1618.075	1.6	1663776	WORD	n/a	wordpools/wordpool.txt	DESK	7	0	7	[0, 0, 0]	n/a	0	1	0	n/a	n/a	0.0	0	0	0	FR3	3	R1154D
1619.599	0.0	1665299	STIM_ON	n/a	n/a	DESK	7	0	7	[0, 0, 0]	n/a	1	1	500	LTCG29	LTCG30	1000.0	200	100	300	FR3	3	R1154D
1619.692	0.407	1665392	WORD_OFF	n/a	n/a	DESK	7	0	7	[0, 0, 0]	n/a	1	1	500	LTCG29	LTCG30	1000.0	200	100	300	FR3	3	R1154D
1620.099	0.593	1665799	STIM_OFF	n/a	n/a	n/a	7	0	7	[0, 0, 0]	n/a	0	1	500	LTCG29	LTCG30	1000.0	200	100	300	FR3	3	R1154D
1620.692	1.6	1666392	WORD	n/a	wordpools/wordpool.txt	SMILE	8	0	7	[0, 0, 0]	n/a	0	1	0	n/a	n/a	0.0	0	0	0	FR3	3	R1154D
1622.308	0.768	1668008	WORD_OFF	n/a	n/a	SMILE	8	0	7	[0, 0, 0]	n/a	0	1	0	n/a	n/a	0.0	0	0	0	FR3	3	R1154D
1623.076	1.6	1668776	WORD	n/a	wordpools/wordpool.txt	MUG	9	0	7	[0, 0, 0]	n/a	0	1	0	n/a	n/a	0.0	0	0	0	FR3	3	R1154D
1624.693	1.017	1670393	WORD_OFF	n/a	n/a	MUG	9	0	7	[0, 0, 0]	n/a	0	1	0	n/a	n/a	0.0	0	0	0	FR3	3	R1154D
1625.71	1.6	1671410	WORD	n/a	wordpools/wordpool.txt	PURSE	10	1	7	[0, 0, 0]	n/a	0	1	0	n/a	n/a	0.0	0	0	0	FR3	3	R1154D
1627.327	0.849	1673027	WORD_OFF	n/a	n/a	PURSE	10	0	7	[0, 0, 0]	n/a	0	1	0	n/a	n/a	0.0	0	0	0	FR3	3	R1154D
1628.176	1.6	1673876	WORD	n/a	wordpools/wordpool.txt	BREAD	11	0	7	[0, 0, 0]	n/a	0	1	0	n/a	n/a	0.0	0	0	0	FR3	3	R1154D
1629.794	0.767	1675494	WORD_OFF	n/a	n/a	BREAD	11	0	7	[0, 0, 0]	n/a	0	1	0	n/a	n/a	0.0	0	0	0	FR3	3	R1154D
1630.561	1.6	1676261	WORD	n/a	wordpools/wordpool.txt	SOCK	12	0	7	[0, 0, 0]	n/a	0	1	0	n/a	n/a	0.0	0	0	0	FR3	3	R1154D
1632.094	0.0	1677794	STIM_ON	n/a	n/a	SOCK	12	0	7	[0, 0, 0]	n/a	1	1	500	LTCG29	LTCG30	1000.0	200	100	300	FR3	3	R1154D
1632.177	0.0	1677877	WORD_OFF	n/a	n/a	SOCK	12	0	7	[0, 0, 0]	n/a	1	1	500	LTCG29	LTCG30	1000.0	200	100	300	FR3	3	R1154D
1632.177	0.0	1677877	DISTRACT_START	n/a	n/a	n/a	-999	0	7	[0, 0, 0]	n/a	1	1	500	LTCG29	LTCG30	1000.0	200	100	300	FR3	3	R1154D
1632.177	0.016	1677877	START	n/a	n/a	n/a	-999	0	7	[-999, -999, -999]	n/a	0	1	0	n/a	n/a	0.0	0	0	0	FR3	3	R1154D
1632.193	0.401	1677893	PROB	2.968	n/a	n/a	-999	0	7	[3, 5, 5]	13	0	1	0	n/a	n/a	0.0	0	0	0	FR3	3	R1154D
1632.594	2.6	1678294	STIM_OFF	n/a	n/a	n/a	-999	0	7	[0, 0, 0]	n/a	0	1	500	LTCG29	LTCG30	1000.0	200	100	300	FR3	3	R1154D
1635.194	2.05	1680894	PROB	2.015	n/a	n/a	-999	0	7	[3, 1, 4]	8	0	1	0	n/a	n/a	0.0	0	0	0	FR3	3	R1154D
1637.244	1.502	1682944	PROB	1.478	n/a	n/a	-999	0	7	[3, 3, 3]	9	0	1	0	n/a	n/a	0.0	0	0	0	FR3	3	R1154D
1638.746	1.767	1684445	PROB	1.744	n/a	n/a	-999	0	7	[7, 1, 2]	10	0	1	0	n/a	n/a	0.0	0	0	0	FR3	3	R1154D
1640.513	2.65	1686212	PROB	2.625	n/a	n/a	-999	0	7	[2, 9, 7]	18	0	1	0	n/a	n/a	0.0	0	0	0	FR3	3	R1154D
1643.163	3.801	1688862	PROB	3.767	n/a	n/a	-999	0	7	[7, 6, 7]	20	0	1	0	n/a	n/a	0.0	0	0	0	FR3	3	R1154D
1646.964	4.216	1692663	PROB	4.181	n/a	n/a	-999	0	7	[9, 3, 6]	18	0	1	0	n/a	n/a	0.0	0	0	0	FR3	3	R1154D
1651.18	1.918	1696879	PROB	1.918	n/a	n/a	-999	0	7	[7, 1, 2]	10	0	1	0	n/a	n/a	0.0	0	0	0	FR3	3	R1154D
1653.098	0.017	1698797	STOP	n/a	n/a	n/a	-999	0	7	[-999, -999, -999]	n/a	0	1	0	n/a	n/a	0.0	0	0	0	FR3	3	R1154D
1653.115	0.667	1698814	DISTRACT_END	n/a	n/a	n/a	-999	0	7	[0, 0, 0]	n/a	0	1	0	n/a	n/a	0.0	0	0	0	FR3	3	R1154D
1653.782	0.5	1699481	RETRIEVAL_ORIENT	n/a	n/a	n/a	-999	0	7	[0, 0, 0]	n/a	0	1	0	n/a	n/a	0.0	0	0	0	FR3	3	R1154D
1654.298	1.232	1699997	REC_START	n/a	n/a	n/a	-999	0	7	[0, 0, 0]	n/a	0	1	0	n/a	n/a	0.0	0	0	0	FR3	3	R1154D
1655.53	1.798	1701229	REC_WORD	1.232	n/a	TRAIN	-999	0	7	[0, 0, 0]	n/a	0	1	0	n/a	n/a	0.0	0	0	0	FR3	3	R1154D
1657.328	1.954	1703026	REC_WORD	3.03	n/a	STYLE	-999	0	7	[0, 0, 0]	n/a	0	1	0	n/a	n/a	0.0	0	0	0	FR3	3	R1154D
1659.282	14.239	1704980	REC_WORD	4.984	n/a	PURSE	10	1	7	[0, 0, 0]	n/a	0	1	0	n/a	n/a	0.0	0	0	0	FR3	3	R1154D
1673.521	10.786	1719219	REC_WORD_VV	19.223	n/a	<>	-999	0	7	[0, 0, 0]	n/a	0	1	0	n/a	n/a	0.0	0	0	0	FR3	3	R1154D
1684.307	5.165	1730004	REC_END	n/a	n/a	n/a	-999	0	7	[0, 0, 0]	n/a	0	1	0	n/a	n/a	0.0	0	0	0	FR3	3	R1154D
1689.472	0.5	1735169	TRIAL	n/a	n/a	n/a	-999	0	8	[0, 0, 0]	n/a	0	1	0	n/a	n/a	0.0	0	0	0	FR3	3	R1154D
1689.972	10.0	1735669	COUNTDOWN_START	n/a	n/a	n/a	-999	0	8	[0, 0, 0]	n/a	0	1	0	n/a	n/a	0.0	0	0	0	FR3	3	R1154D
1700.4	0.007	1746096	COUNTDOWN_END	n/a	n/a	n/a	-999	0	8	[0, 0, 0]	n/a	0	1	0	n/a	n/a	0.0	0	0	0	FR3	3	R1154D
1700.407	1.6	1746103	ORIENT	n/a	n/a	n/a	-999	0	8	[0, 0, 0]	n/a	0	1	0	n/a	n/a	0.0	0	0	0	FR3	3	R1154D
1702.024	2.149	1747720	ORIENT_OFF	n/a	n/a	n/a	-999	0	8	[0, 0, 0]	n/a	0	1	0	n/a	n/a	0.0	0	0	0	FR3	3	R1154D
1704.173	1.6	1749869	WORD	n/a	wordpools/wordpool.txt	FLUTE	1	1	8	[0, 0, 0]	n/a	0	1	0	n/a	n/a	0.0	0	0	0	FR3	3	R1154D
1705.774	0.967	1751470	WORD_OFF	n/a	n/a	FLUTE	1	0	8	[0, 0, 0]	n/a	0	1	0	n/a	n/a	0.0	0	0	0	FR3	3	R1154D
1706.741	1.6	1752437	WORD	n/a	wordpools/wordpool.txt	STRING	2	1	8	[0, 0, 0]	n/a	0	1	0	n/a	n/a	0.0	0	0	0	FR3	3	R1154D
1708.358	0.833	1754054	WORD_OFF	n/a	n/a	STRING	2	0	8	[0, 0, 0]	n/a	0	1	0	n/a	n/a	0.0	0	0	0	FR3	3	R1154D
1709.191	1.6	1754887	WORD	n/a	wordpools/wordpool.txt	HAND	3	0	8	[0, 0, 0]	n/a	0	1	0	n/a	n/a	0.0	0	0	0	FR3	3	R1154D
1710.809	0.95	1756505	WORD_OFF	n/a	n/a	HAND	3	0	8	[0, 0, 0]	n/a	0	1	0	n/a	n/a	0.0	0	0	0	FR3	3	R1154D
1711.759	1.6	1757455	WORD	n/a	wordpools/wordpool.txt	FOAM	4	1	8	[0, 0, 0]	n/a	0	1	0	n/a	n/a	0.0	0	0	0	FR3	3	R1154D
1713.376	0.916	1759071	WORD_OFF	n/a	n/a	FOAM	4	0	8	[0, 0, 0]	n/a	0	1	0	n/a	n/a	0.0	0	0	0	FR3	3	R1154D
1714.292	1.6	1759987	WORD	n/a	wordpools/wordpool.txt	GATE	5	0	8	[0, 0, 0]	n/a	0	1	0	n/a	n/a	0.0	0	0	0	FR3	3	R1154D
1715.91	0.917	1761605	WORD_OFF	n/a	n/a	GATE	5	0	8	[0, 0, 0]	n/a	0	1	0	n/a	n/a	0.0	0	0	0	FR3	3	R1154D
1716.827	1.6	1762522	WORD	n/a	wordpools/wordpool.txt	HORN	6	0	8	[0, 0, 0]	n/a	0	1	0	n/a	n/a	0.0	0	0	0	FR3	3	R1154D
1718.443	0.884	1764138	WORD_OFF	n/a	n/a	HORN	6	0	8	[0, 0, 0]	n/a	0	1	0	n/a	n/a	0.0	0	0	0	FR3	3	R1154D
1719.327	1.6	1765022	WORD	n/a	wordpools/wordpool.txt	FORK	7	1	8	[0, 0, 0]	n/a	0	1	0	n/a	n/a	0.0	0	0	0	FR3	3	R1154D
1720.944	0.817	1766639	WORD_OFF	n/a	n/a	FORK	7	0	8	[0, 0, 0]	n/a	0	1	0	n/a	n/a	0.0	0	0	0	FR3	3	R1154D
1721.761	1.6	1767456	WORD	n/a	wordpools/wordpool.txt	SINK	8	0	8	[0, 0, 0]	n/a	0	1	0	n/a	n/a	0.0	0	0	0	FR3	3	R1154D
1723.378	0.882	1769073	WORD_OFF	n/a	n/a	SINK	8	0	8	[0, 0, 0]	n/a	0	1	0	n/a	n/a	0.0	0	0	0	FR3	3	R1154D
1724.26	1.6	1769955	WORD	n/a	wordpools/wordpool.txt	SHOE	9	0	8	[0, 0, 0]	n/a	0	1	0	n/a	n/a	0.0	0	0	0	FR3	3	R1154D
1725.861	0.951	1771556	WORD_OFF	n/a	n/a	SHOE	9	0	8	[0, 0, 0]	n/a	0	1	0	n/a	n/a	0.0	0	0	0	FR3	3	R1154D
1726.812	1.6	1772507	WORD	n/a	wordpools/wordpool.txt	SLEEVE	10	0	8	[0, 0, 0]	n/a	0	1	0	n/a	n/a	0.0	0	0	0	FR3	3	R1154D
1728.352	0.0	1774047	STIM_ON	n/a	n/a	SLEEVE	10	0	8	[0, 0, 0]	n/a	1	1	500	LTCG29	LTCG30	1000.0	200	100	300	FR3	3	R1154D
1728.429	0.423	1774124	WORD_OFF	n/a	n/a	SLEEVE	10	0	8	[0, 0, 0]	n/a	1	1	500	LTCG29	LTCG30	1000.0	200	100	300	FR3	3	R1154D
1728.852	0.442	1774547	STIM_OFF	n/a	n/a	n/a	10	0	8	[0, 0, 0]	n/a	0	1	500	LTCG29	LTCG30	1000.0	200	100	300	FR3	3	R1154D
1729.294	1.6	1774989	WORD	n/a	wordpools/wordpool.txt	PIPE	11	1	8	[0, 0, 0]	n/a	0	1	0	n/a	n/a	0.0	0	0	0	FR3	3	R1154D
1730.912	0.967	1776607	WORD_OFF	n/a	n/a	PIPE	11	0	8	[0, 0, 0]	n/a	0	1	0	n/a	n/a	0.0	0	0	0	FR3	3	R1154D
1731.879	1.6	1777573	WORD	n/a	wordpools/wordpool.txt	THREAD	12	0	8	[0, 0, 0]	n/a	0	1	0	n/a	n/a	0.0	0	0	0	FR3	3	R1154D
1733.496	0.0	1779190	WORD_OFF	n/a	n/a	THREAD	12	0	8	[0, 0, 0]	n/a	0	1	0	n/a	n/a	0.0	0	0	0	FR3	3	R1154D
1733.496	0.001	1779190	DISTRACT_START	n/a	n/a	n/a	-999	0	8	[0, 0, 0]	n/a	0	1	0	n/a	n/a	0.0	0	0	0	FR3	3	R1154D
1733.497	0.016	1779191	START	n/a	n/a	n/a	-999	0	8	[-999, -999, -999]	n/a	0	1	0	n/a	n/a	0.0	0	0	0	FR3	3	R1154D
1733.513	2.35	1779207	PROB	2.312	n/a	n/a	-999	0	8	[7, 2, 7]	16	0	1	0	n/a	n/a	0.0	0	0	0	FR3	3	R1154D
1735.863	2.217	1781557	PROB	2.193	n/a	n/a	-999	0	8	[9, 9, 8]	27	0	1	0	n/a	n/a	0.0	0	0	0	FR3	3	R1154D
1738.08	1.634	1783774	PROB	1.602	n/a	n/a	-999	0	8	[9, 8, 2]	19	0	1	0	n/a	n/a	0.0	0	0	0	FR3	3	R1154D
1739.714	1.85	1785408	PROB	1.823	n/a	n/a	-999	0	8	[3, 4, 2]	9	0	1	0	n/a	n/a	0.0	0	0	0	FR3	3	R1154D
1741.564	2.451	1787258	PROB	2.42	n/a	n/a	-999	0	8	[4, 7, 4]	15	0	1	0	n/a	n/a	0.0	0	0	0	FR3	3	R1154D
1744.015	4.25	1789709	PROB	4.217	n/a	n/a	-999	0	8	[9, 9, 8]	26	0	1	0	n/a	n/a	0.0	0	0	0	FR3	3	R1154D
1748.265	2.118	1793959	PROB	2.088	n/a	n/a	-999	0	8	[3, 4, 6]	13	0	1	0	n/a	n/a	0.0	0	0	0	FR3	3	R1154D
1750.383	2.033	1796076	PROB	2.009	n/a	n/a	-999	0	8	[2, 2, 3]	7	0	1	0	n/a	n/a	0.0	0	0	0	FR3	3	R1154D
1752.416	3.624	1798109	PROB	3.624	n/a	n/a	-999	0	8	[2, 1, 4]	77	0	1	0	n/a	n/a	0.0	0	0	0	FR3	3	R1154D
1756.04	0.01	1801733	STOP	n/a	n/a	n/a	-999	0	8	[-999, -999, -999]	n/a	0	1	0	n/a	n/a	0.0	0	0	0	FR3	3	R1154D
1756.05	0.517	1801743	DISTRACT_END	n/a	n/a	n/a	-999	0	8	[0, 0, 0]	n/a	0	1	0	n/a	n/a	0.0	0	0	0	FR3	3	R1154D
1756.567	0.5	1802260	RETRIEVAL_ORIENT	n/a	n/a	n/a	-999	0	8	[0, 0, 0]	n/a	0	1	0	n/a	n/a	0.0	0	0	0	FR3	3	R1154D
1757.085	2.98	1802778	REC_START	n/a	n/a	n/a	-999	0	8	[0, 0, 0]	n/a	0	1	0	n/a	n/a	0.0	0	0	0	FR3	3	R1154D
1760.065	0.776	1805758	REC_WORD	2.98	n/a	FLUTE	1	1	8	[0, 0, 0]	n/a	0	1	0	n/a	n/a	0.0	0	0	0	FR3	3	R1154D
1760.841	1.633	1806534	REC_WORD	3.756	n/a	STRING	2	1	8	[0, 0, 0]	n/a	0	1	0	n/a	n/a	0.0	0	0	0	FR3	3	R1154D
1762.474	2.287	1808167	REC_WORD	5.389	n/a	PIPE	11	1	8	[0, 0, 0]	n/a	0	1	0	n/a	n/a	0.0	0	0	0	FR3	3	R1154D
1764.761	1.613	1810454	REC_WORD	7.676	n/a	STAIR	-999	0	8	[0, 0, 0]	n/a	0	1	0	n/a	n/a	0.0	0	0	0	FR3	3	R1154D
1766.374	3.201	1812067	REC_WORD	9.289	n/a	FORK	7	1	8	[0, 0, 0]	n/a	0	1	0	n/a	n/a	0.0	0	0	0	FR3	3	R1154D
1769.575	17.52	1815267	REC_WORD	12.49	n/a	FOAM	4	1	8	[0, 0, 0]	n/a	0	1	0	n/a	n/a	0.0	0	0	0	FR3	3	R1154D
1787.095	4.379	1832786	REC_END	n/a	n/a	n/a	-999	0	8	[0, 0, 0]	n/a	0	1	0	n/a	n/a	0.0	0	0	0	FR3	3	R1154D
1791.474	0.5	1837165	TRIAL	n/a	n/a	n/a	-999	0	9	[0, 0, 0]	n/a	0	1	0	n/a	n/a	0.0	0	0	0	FR3	3	R1154D
1791.974	10.0	1837665	COUNTDOWN_START	n/a	n/a	n/a	-999	0	9	[0, 0, 0]	n/a	0	1	0	n/a	n/a	0.0	0	0	0	FR3	3	R1154D
1802.402	0.007	1848093	COUNTDOWN_END	n/a	n/a	n/a	-999	0	9	[0, 0, 0]	n/a	0	1	0	n/a	n/a	0.0	0	0	0	FR3	3	R1154D
1802.409	1.6	1848100	ORIENT	n/a	n/a	n/a	-999	0	9	[0, 0, 0]	n/a	0	1	0	n/a	n/a	0.0	0	0	0	FR3	3	R1154D
1804.026	1.984	1849717	ORIENT_OFF	n/a	n/a	n/a	-999	0	9	[0, 0, 0]	n/a	0	1	0	n/a	n/a	0.0	0	0	0	FR3	3	R1154D
1806.01	1.6	1851700	WORD	n/a	wordpools/wordpool.txt	BOMB	1	0	9	[0, 0, 0]	n/a	0	1	0	n/a	n/a	0.0	0	0	0	FR3	3	R1154D
1807.626	0.851	1853316	WORD_OFF	n/a	n/a	BOMB	1	0	9	[0, 0, 0]	n/a	0	1	0	n/a	n/a	0.0	0	0	0	FR3	3	R1154D
1808.477	1.6	1854167	WORD	n/a	wordpools/wordpool.txt	GUARD	2	0	9	[0, 0, 0]	n/a	0	1	0	n/a	n/a	0.0	0	0	0	FR3	3	R1154D
1810.008	0.0	1855698	STIM_ON	n/a	n/a	GUARD	2	0	9	[0, 0, 0]	n/a	1	1	500	LTCG29	LTCG30	1000.0	200	100	300	FR3	3	R1154D
1810.094	0.414	1855784	WORD_OFF	n/a	n/a	GUARD	2	0	9	[0, 0, 0]	n/a	1	1	500	LTCG29	LTCG30	1000.0	200	100	300	FR3	3	R1154D
1810.508	0.569	1856198	STIM_OFF	n/a	n/a	n/a	2	0	9	[0, 0, 0]	n/a	0	1	500	LTCG29	LTCG30	1000.0	200	100	300	FR3	3	R1154D
1811.077	1.6	1856767	WORD	n/a	wordpools/wordpool.txt	ROSE	3	1	9	[0, 0, 0]	n/a	0	1	0	n/a	n/a	0.0	0	0	0	FR3	3	R1154D
1812.62	0.0	1858310	STIM_ON	n/a	n/a	ROSE	3	1	9	[0, 0, 0]	n/a	1	1	500	LTCG29	LTCG30	1000.0	200	100	300	FR3	3	R1154D
1812.694	0.426	1858384	WORD_OFF	n/a	n/a	ROSE	3	0	9	[0, 0, 0]	n/a	1	1	500	LTCG29	LTCG30	1000.0	200	100	300	FR3	3	R1154D
1813.12	0.508	1858810	STIM_OFF	n/a	n/a	n/a	3	0	9	[0, 0, 0]	n/a	0	1	500	LTCG29	LTCG30	1000.0	200	100	300	FR3	3	R1154D
1813.628	1.6	1859318	WORD	n/a	wordpools/wordpool.txt	FENCE	4	1	9	[0, 0, 0]	n/a	0	1	0	n/a	n/a	0.0	0	0	0	FR3	3	R1154D
1815.244	0.884	1860934	WORD_OFF	n/a	n/a	FENCE	4	0	9	[0, 0, 0]	n/a	0	1	0	n/a	n/a	0.0	0	0	0	FR3	3	R1154D
1816.128	1.6	1861818	WORD	n/a	wordpools/wordpool.txt	SQUARE	5	1	9	[0, 0, 0]	n/a	0	1	0	n/a	n/a	0.0	0	0	0	FR3	3	R1154D
1817.745	0.967	1863435	WORD_OFF	n/a	n/a	SQUARE	5	0	9	[0, 0, 0]	n/a	0	1	0	n/a	n/a	0.0	0	0	0	FR3	3	R1154D
1818.712	1.6	1864402	WORD	n/a	wordpools/wordpool.txt	CHIN	6	0	9	[0, 0, 0]	n/a	0	1	0	n/a	n/a	0.0	0	0	0	FR3	3	R1154D
1820.329	0.8	1866019	WORD_OFF	n/a	n/a	CHIN	6	0	9	[0, 0, 0]	n/a	0	1	0	n/a	n/a	0.0	0	0	0	FR3	3	R1154D
1821.129	1.6	1866819	WORD	n/a	wordpools/wordpool.txt	FOOT	7	1	9	[0, 0, 0]	n/a	0	1	0	n/a	n/a	0.0	0	0	0	FR3	3	R1154D
1822.746	0.9	1868436	WORD_OFF	n/a	n/a	FOOT	7	0	9	[0, 0, 0]	n/a	0	1	0	n/a	n/a	0.0	0	0	0	FR3	3	R1154D
1823.646	1.6	1869336	WORD	n/a	wordpools/wordpool.txt	SHIELD	8	1	9	[0, 0, 0]	n/a	0	1	0	n/a	n/a	0.0	0	0	0	FR3	3	R1154D
1825.262	0.984	1870951	WORD_OFF	n/a	n/a	SHIELD	8	0	9	[0, 0, 0]	n/a	0	1	0	n/a	n/a	0.0	0	0	0	FR3	3	R1154D
1826.246	1.6	1871935	WORD	n/a	wordpools/wordpool.txt	FACE	9	1	9	[0, 0, 0]	n/a	0	1	0	n/a	n/a	0.0	0	0	0	FR3	3	R1154D
1827.792	0.0	1873481	STIM_ON	n/a	n/a	FACE	9	1	9	[0, 0, 0]	n/a	1	1	500	LTCG29	LTCG30	1000.0	200	100	300	FR3	3	R1154D
1827.864	0.428	1873553	WORD_OFF	n/a	n/a	FACE	9	0	9	[0, 0, 0]	n/a	1	1	500	LTCG29	LTCG30	1000.0	200	100	300	FR3	3	R1154D
1828.292	0.405	1873981	STIM_OFF	n/a	n/a	n/a	9	0	9	[0, 0, 0]	n/a	0	1	500	LTCG29	LTCG30	1000.0	200	100	300	FR3	3	R1154D
1828.697	1.6	1874386	WORD	n/a	wordpools/wordpool.txt	PIN	10	0	9	[0, 0, 0]	n/a	0	1	0	n/a	n/a	0.0	0	0	0	FR3	3	R1154D
1830.313	1.018	1876002	WORD_OFF	n/a	n/a	PIN	10	0	9	[0, 0, 0]	n/a	0	1	0	n/a	n/a	0.0	0	0	0	FR3	3	R1154D
1831.331	1.6	1877020	WORD	n/a	wordpools/wordpool.txt	BENCH	11	0	9	[0, 0, 0]	n/a	0	1	0	n/a	n/a	0.0	0	0	0	FR3	3	R1154D
1832.948	0.917	1878637	WORD_OFF	n/a	n/a	BENCH	11	0	9	[0, 0, 0]	n/a	0	1	0	n/a	n/a	0.0	0	0	0	FR3	3	R1154D
1833.865	1.6	1879554	WORD	n/a	wordpools/wordpool.txt	WAND	12	0	9	[0, 0, 0]	n/a	0	1	0	n/a	n/a	0.0	0	0	0	FR3	3	R1154D
1835.482	0.0	1881171	WORD_OFF	n/a	n/a	WAND	12	0	9	[0, 0, 0]	n/a	0	1	0	n/a	n/a	0.0	0	0	0	FR3	3	R1154D
1835.482	0.0	1881171	DISTRACT_START	n/a	n/a	n/a	-999	0	9	[0, 0, 0]	n/a	0	1	0	n/a	n/a	0.0	0	0	0	FR3	3	R1154D
1835.482	0.016	1881171	START	n/a	n/a	n/a	-999	0	9	[-999, -999, -999]	n/a	0	1	0	n/a	n/a	0.0	0	0	0	FR3	3	R1154D
1835.498	2.151	1881187	PROB	2.128	n/a	n/a	-999	0	9	[5, 4, 2]	11	0	1	0	n/a	n/a	0.0	0	0	0	FR3	3	R1154D
1837.649	1.267	1883338	PROB	1.24	n/a	n/a	-999	0	9	[2, 1, 9]	12	0	1	0	n/a	n/a	0.0	0	0	0	FR3	3	R1154D
1838.916	1.816	1884605	PROB	1.782	n/a	n/a	-999	0	9	[2, 4, 4]	10	0	1	0	n/a	n/a	0.0	0	0	0	FR3	3	R1154D
1840.732	1.868	1886421	PROB	1.829	n/a	n/a	-999	0	9	[3, 9, 6]	18	0	1	0	n/a	n/a	0.0	0	0	0	FR3	3	R1154D
1842.6	2.117	1888289	PROB	2.09	n/a	n/a	-999	0	9	[8, 5, 4]	17	0	1	0	n/a	n/a	0.0	0	0	0	FR3	3	R1154D
1844.717	2.582	1890405	PROB	2.554	n/a	n/a	-999	0	9	[6, 7, 2]	15	0	1	0	n/a	n/a	0.0	0	0	0	FR3	3	R1154D
1847.299	1.951	1892987	PROB	1.926	n/a	n/a	-999	0	9	[6, 1, 4]	10	0	1	0	n/a	n/a	0.0	0	0	0	FR3	3	R1154D
1849.25	3.118	1894938	PROB	3.087	n/a	n/a	-999	0	9	[7, 8, 4]	19	0	1	0	n/a	n/a	0.0	0	0	0	FR3	3	R1154D
1852.368	2.067	1898056	PROB	2.041	n/a	n/a	-999	0	9	[7, 6, 2]	15	0	1	0	n/a	n/a	0.0	0	0	0	FR3	3	R1154D
1854.435	2.734	1900123	PROB	2.734	n/a	n/a	-999	0	9	[7, 6, 7]	20	0	1	0	n/a	n/a	0.0	0	0	0	FR3	3	R1154D
1857.169	0.016	1902857	STOP	n/a	n/a	n/a	-999	0	9	[-999, -999, -999]	n/a	0	1	0	n/a	n/a	0.0	0	0	0	FR3	3	R1154D
1857.185	0.601	1902873	DISTRACT_END	n/a	n/a	n/a	-999	0	9	[0, 0, 0]	n/a	0	1	0	n/a	n/a	0.0	0	0	0	FR3	3	R1154D
1857.786	0.5	1903474	RETRIEVAL_ORIENT	n/a	n/a	n/a	-999	0	9	[0, 0, 0]	n/a	0	1	0	n/a	n/a	0.0	0	0	0	FR3	3	R1154D
1858.302	2.454	1903990	REC_START	n/a	n/a	n/a	-999	0	9	[0, 0, 0]	n/a	0	1	0	n/a	n/a	0.0	0	0	0	FR3	3	R1154D
1860.756	2.877	1906444	REC_WORD	2.454	n/a	FENCE	4	1	9	[0, 0, 0]	n/a	0	1	0	n/a	n/a	0.0	0	0	0	FR3	3	R1154D
1863.633	3.608	1909320	REC_WORD	5.331	n/a	FOOT	7	1	9	[0, 0, 0]	n/a	0	1	0	n/a	n/a	0.0	0	0	0	FR3	3	R1154D
1867.241	6.26	1912928	REC_WORD	8.939	n/a	SHIELD	8	1	9	[0, 0, 0]	n/a	0	1	0	n/a	n/a	0.0	0	0	0	FR3	3	R1154D
1873.501	3.72	1919188	REC_WORD	15.199	n/a	ROSE	3	1	9	[0, 0, 0]	n/a	0	1	0	n/a	n/a	0.0	0	0	0	FR3	3	R1154D
1877.221	0.553	1922908	REC_WORD	18.919	n/a	FACE	9	1	9	[0, 0, 0]	n/a	0	1	0	n/a	n/a	0.0	0	0	0	FR3	3	R1154D
1877.774	7.804	1923461	REC_WORD	19.472	n/a	SQUARE	5	1	9	[0, 0, 0]	n/a	0	1	0	n/a	n/a	0.0	0	0	0	FR3	3	R1154D
1885.578	1.373	1931264	REC_WORD	27.276	n/a	SLEEVE	-999	0	9	[0, 0, 0]	n/a	0	1	0	n/a	n/a	0.0	0	0	0	FR3	3	R1154D
1886.951	1.36	1932637	REC_WORD	28.649	n/a	SOCK	-999	0	9	[0, 0, 0]	n/a	0	1	0	n/a	n/a	0.0	0	0	0	FR3	3	R1154D
1888.311	4.198	1933997	REC_END	n/a	n/a	n/a	-999	0	9	[0, 0, 0]	n/a	0	1	0	n/a	n/a	0.0	0	0	0	FR3	3	R1154D
1892.509	0.5	1938195	TRIAL	n/a	n/a	n/a	-999	0	10	[0, 0, 0]	n/a	0	0	0	n/a	n/a	0.0	0	0	0	FR3	3	R1154D
1893.009	10.0	1938695	COUNTDOWN_START	n/a	n/a	n/a	-999	0	10	[0, 0, 0]	n/a	0	0	0	n/a	n/a	0.0	0	0	0	FR3	3	R1154D
1903.437	0.007	1949122	COUNTDOWN_END	n/a	n/a	n/a	-999	0	10	[0, 0, 0]	n/a	0	0	0	n/a	n/a	0.0	0	0	0	FR3	3	R1154D
1903.444	1.6	1949129	ORIENT	n/a	n/a	n/a	-999	0	10	[0, 0, 0]	n/a	0	0	0	n/a	n/a	0.0	0	0	0	FR3	3	R1154D
1905.061	1.834	1950746	ORIENT_OFF	n/a	n/a	n/a	-999	0	10	[0, 0, 0]	n/a	0	0	0	n/a	n/a	0.0	0	0	0	FR3	3	R1154D
1906.895	1.6	1952580	WORD	n/a	wordpools/wordpool.txt	CAR	1	1	10	[0, 0, 0]	n/a	0	0	0	n/a	n/a	0.0	0	0	0	FR3	3	R1154D
1908.512	0.799	1954197	WORD_OFF	n/a	n/a	CAR	1	0	10	[0, 0, 0]	n/a	0	0	0	n/a	n/a	0.0	0	0	0	FR3	3	R1154D
1909.311	1.6	1954996	WORD	n/a	wordpools/wordpool.txt	BOOK	2	0	10	[0, 0, 0]	n/a	0	0	0	n/a	n/a	0.0	0	0	0	FR3	3	R1154D
1910.929	0.817	1956614	WORD_OFF	n/a	n/a	BOOK	2	0	10	[0, 0, 0]	n/a	0	0	0	n/a	n/a	0.0	0	0	0	FR3	3	R1154D
1911.746	1.6	1957431	WORD	n/a	wordpools/wordpool.txt	RUG	3	0	10	[0, 0, 0]	n/a	0	0	0	n/a	n/a	0.0	0	0	0	FR3	3	R1154D
1913.362	0.967	1959047	WORD_OFF	n/a	n/a	RUG	3	0	10	[0, 0, 0]	n/a	0	0	0	n/a	n/a	0.0	0	0	0	FR3	3	R1154D
1914.329	1.6	1960014	WORD	n/a	wordpools/wordpool.txt	POLE	4	0	10	[0, 0, 0]	n/a	0	0	0	n/a	n/a	0.0	0	0	0	FR3	3	R1154D
1915.946	0.767	1961631	WORD_OFF	n/a	n/a	POLE	4	0	10	[0, 0, 0]	n/a	0	0	0	n/a	n/a	0.0	0	0	0	FR3	3	R1154D
1916.713	1.6	1962398	WORD	n/a	wordpools/wordpool.txt	DOG	5	1	10	[0, 0, 0]	n/a	0	0	0	n/a	n/a	0.0	0	0	0	FR3	3	R1154D
1918.33	0.8	1964014	WORD_OFF	n/a	n/a	DOG	5	0	10	[0, 0, 0]	n/a	0	0	0	n/a	n/a	0.0	0	0	0	FR3	3	R1154D
1919.13	1.6	1964814	WORD	n/a	wordpools/wordpool.txt	VAN	6	0	10	[0, 0, 0]	n/a	0	0	0	n/a	n/a	0.0	0	0	0	FR3	3	R1154D
1920.747	1.0	1966431	WORD_OFF	n/a	n/a	VAN	6	0	10	[0, 0, 0]	n/a	0	0	0	n/a	n/a	0.0	0	0	0	FR3	3	R1154D
1921.747	1.6	1967431	WORD	n/a	wordpools/wordpool.txt	PEA	7	1	10	[0, 0, 0]	n/a	0	0	0	n/a	n/a	0.0	0	0	0	FR3	3	R1154D
1923.364	0.883	1969048	WORD_OFF	n/a	n/a	PEA	7	0	10	[0, 0, 0]	n/a	0	0	0	n/a	n/a	0.0	0	0	0	FR3	3	R1154D
1924.247	1.6	1969931	WORD	n/a	wordpools/wordpool.txt	BRIDGE	8	1	10	[0, 0, 0]	n/a	0	0	0	n/a	n/a	0.0	0	0	0	FR3	3	R1154D
1925.865	0.883	1971549	WORD_OFF	n/a	n/a	BRIDGE	8	0	10	[0, 0, 0]	n/a	0	0	0	n/a	n/a	0.0	0	0	0	FR3	3	R1154D
1926.748	1.6	1972432	WORD	n/a	wordpools/wordpool.txt	FORT	9	0	10	[0, 0, 0]	n/a	0	0	0	n/a	n/a	0.0	0	0	0	FR3	3	R1154D
1928.365	0.833	1974049	WORD_OFF	n/a	n/a	FORT	9	0	10	[0, 0, 0]	n/a	0	0	0	n/a	n/a	0.0	0	0	0	FR3	3	R1154D
1929.198	1.6	1974882	WORD	n/a	wordpools/wordpool.txt	STAR	10	0	10	[0, 0, 0]	n/a	0	0	0	n/a	n/a	0.0	0	0	0	FR3	3	R1154D
1930.816	0.883	1976500	WORD_OFF	n/a	n/a	STAR	10	0	10	[0, 0, 0]	n/a	0	0	0	n/a	n/a	0.0	0	0	0	FR3	3	R1154D
1931.699	1.6	1977383	WORD	n/a	wordpools/wordpool.txt	TRASH	11	0	10	[0, 0, 0]	n/a	0	0	0	n/a	n/a	0.0	0	0	0	FR3	3	R1154D
1933.315	0.835	1978999	WORD_OFF	n/a	n/a	TRASH	11	0	10	[0, 0, 0]	n/a	0	0	0	n/a	n/a	0.0	0	0	0	FR3	3	R1154D
1934.15	1.6	1979834	WORD	n/a	wordpools/wordpool.txt	JUDGE	12	1	10	[0, 0, 0]	n/a	0	0	0	n/a	n/a	0.0	0	0	0	FR3	3	R1154D
1935.767	0.0	1981451	WORD_OFF	n/a	n/a	JUDGE	12	0	10	[0, 0, 0]	n/a	0	0	0	n/a	n/a	0.0	0	0	0	FR3	3	R1154D
1935.767	0.0	1981451	DISTRACT_START	n/a	n/a	n/a	-999	0	10	[0, 0, 0]	n/a	0	0	0	n/a	n/a	0.0	0	0	0	FR3	3	R1154D
1935.767	0.016	1981451	START	n/a	n/a	n/a	-999	0	10	[-999, -999, -999]	n/a	0	0	0	n/a	n/a	0.0	0	0	0	FR3	3	R1154D
1935.783	2.151	1981467	PROB	2.123	n/a	n/a	-999	0	10	[3, 2, 8]	13	0	0	0	n/a	n/a	0.0	0	0	0	FR3	3	R1154D
1937.934	1.583	1983617	PROB	1.556	n/a	n/a	-999	0	10	[9, 1, 3]	13	0	0	0	n/a	n/a	0.0	0	0	0	FR3	3	R1154D
1939.517	1.601	1985200	PROB	1.571	n/a	n/a	-999	0	10	[6, 3, 7]	16	0	0	0	n/a	n/a	0.0	0	0	0	FR3	3	R1154D
1941.118	1.683	1986801	PROB	1.66	n/a	n/a	-999	0	10	[1, 6, 8]	15	0	0	0	n/a	n/a	0.0	0	0	0	FR3	3	R1154D
1942.801	1.901	1988484	PROB	1.871	n/a	n/a	-999	0	10	[7, 4, 8]	19	0	0	0	n/a	n/a	0.0	0	0	0	FR3	3	R1154D
1944.702	3.284	1990385	PROB	3.259	n/a	n/a	-999	0	10	[6, 4, 8]	18	0	0	0	n/a	n/a	0.0	0	0	0	FR3	3	R1154D
1947.986	1.983	1993669	PROB	1.952	n/a	n/a	-999	0	10	[6, 2, 2]	10	0	0	0	n/a	n/a	0.0	0	0	0	FR3	3	R1154D
1949.969	1.667	1995652	PROB	1.633	n/a	n/a	-999	0	10	[8, 6, 1]	15	0	0	0	n/a	n/a	0.0	0	0	0	FR3	3	R1154D
1951.636	2.084	1997319	PROB	2.046	n/a	n/a	-999	0	10	[6, 5, 4]	15	0	0	0	n/a	n/a	0.0	0	0	0	FR3	3	R1154D
1953.72	1.4	1999403	PROB	1.37	n/a	n/a	-999	0	10	[2, 3, 7]	12	0	0	0	n/a	n/a	0.0	0	0	0	FR3	3	R1154D
1955.12	2.176	2000803	PROB	2.176	n/a	n/a	-999	0	10	[2, 4, 1]	7	0	0	0	n/a	n/a	0.0	0	0	0	FR3	3	R1154D
1957.296	0.007	2002978	STOP	n/a	n/a	n/a	-999	0	10	[-999, -999, -999]	n/a	0	0	0	n/a	n/a	0.0	0	0	0	FR3	3	R1154D
1957.303	0.684	2002985	DISTRACT_END	n/a	n/a	n/a	-999	0	10	[0, 0, 0]	n/a	0	0	0	n/a	n/a	0.0	0	0	0	FR3	3	R1154D
1957.987	0.5	2003669	RETRIEVAL_ORIENT	n/a	n/a	n/a	-999	0	10	[0, 0, 0]	n/a	0	0	0	n/a	n/a	0.0	0	0	0	FR3	3	R1154D
1958.505	0.59	2004187	REC_START	n/a	n/a	n/a	-999	0	10	[0, 0, 0]	n/a	0	0	0	n/a	n/a	0.0	0	0	0	FR3	3	R1154D
1959.095	0.706	2004777	REC_WORD	0.59	n/a	DOG	5	1	10	[0, 0, 0]	n/a	0	0	0	n/a	n/a	0.0	0	0	0	FR3	3	R1154D
1959.801	2.338	2005483	REC_WORD	1.296	n/a	PEA	7	1	10	[0, 0, 0]	n/a	0	0	0	n/a	n/a	0.0	0	0	0	FR3	3	R1154D
1962.139	10.505	2007821	REC_WORD	3.634	n/a	JUDGE	12	1	10	[0, 0, 0]	n/a	0	0	0	n/a	n/a	0.0	0	0	0	FR3	3	R1154D
1972.644	14.099	2018326	REC_WORD	14.139	n/a	CAR	1	1	10	[0, 0, 0]	n/a	0	0	0	n/a	n/a	0.0	0	0	0	FR3	3	R1154D
1986.743	1.771	2032424	REC_WORD	28.238	n/a	BRIDGE	8	1	10	[0, 0, 0]	n/a	0	0	0	n/a	n/a	0.0	0	0	0	FR3	3	R1154D
1988.514	4.513	2034195	REC_END	n/a	n/a	n/a	-999	0	10	[0, 0, 0]	n/a	0	0	0	n/a	n/a	0.0	0	0	0	FR3	3	R1154D
1993.027	0.5	2038707	TRIAL	n/a	n/a	n/a	-999	0	11	[0, 0, 0]	n/a	0	0	0	n/a	n/a	0.0	0	0	0	FR3	3	R1154D
1993.527	10.0	2039207	COUNTDOWN_START	n/a	n/a	n/a	-999	0	11	[0, 0, 0]	n/a	0	0	0	n/a	n/a	0.0	0	0	0	FR3	3	R1154D
2003.955	0.007	2049635	COUNTDOWN_END	n/a	n/a	n/a	-999	0	11	[0, 0, 0]	n/a	0	0	0	n/a	n/a	0.0	0	0	0	FR3	3	R1154D
2003.962	1.6	2049642	ORIENT	n/a	n/a	n/a	-999	0	11	[0, 0, 0]	n/a	0	0	0	n/a	n/a	0.0	0	0	0	FR3	3	R1154D
2005.579	2.201	2051259	ORIENT_OFF	n/a	n/a	n/a	-999	0	11	[0, 0, 0]	n/a	0	0	0	n/a	n/a	0.0	0	0	0	FR3	3	R1154D
2007.78	1.6	2053460	WORD	n/a	wordpools/wordpool.txt	SHRIMP	1	1	11	[0, 0, 0]	n/a	0	0	0	n/a	n/a	0.0	0	0	0	FR3	3	R1154D
2009.397	0.916	2055077	WORD_OFF	n/a	n/a	SHRIMP	1	0	11	[0, 0, 0]	n/a	0	0	0	n/a	n/a	0.0	0	0	0	FR3	3	R1154D
2010.313	1.6	2055993	WORD	n/a	wordpools/wordpool.txt	COW	2	1	11	[0, 0, 0]	n/a	0	0	0	n/a	n/a	0.0	0	0	0	FR3	3	R1154D
2011.931	1.0	2057610	WORD_OFF	n/a	n/a	COW	2	0	11	[0, 0, 0]	n/a	0	0	0	n/a	n/a	0.0	0	0	0	FR3	3	R1154D
2012.931	1.6	2058610	WORD	n/a	wordpools/wordpool.txt	CORN	3	1	11	[0, 0, 0]	n/a	0	0	0	n/a	n/a	0.0	0	0	0	FR3	3	R1154D
2014.548	0.933	2060227	WORD_OFF	n/a	n/a	CORN	3	0	11	[0, 0, 0]	n/a	0	0	0	n/a	n/a	0.0	0	0	0	FR3	3	R1154D
2015.481	1.6	2061160	WORD	n/a	wordpools/wordpool.txt	PLANT	4	1	11	[0, 0, 0]	n/a	0	0	0	n/a	n/a	0.0	0	0	0	FR3	3	R1154D
2017.098	0.784	2062777	WORD_OFF	n/a	n/a	PLANT	4	0	11	[0, 0, 0]	n/a	0	0	0	n/a	n/a	0.0	0	0	0	FR3	3	R1154D
2017.882	1.6	2063561	WORD	n/a	wordpools/wordpool.txt	TANK	5	0	11	[0, 0, 0]	n/a	0	0	0	n/a	n/a	0.0	0	0	0	FR3	3	R1154D
2019.499	0.95	2065178	WORD_OFF	n/a	n/a	TANK	5	0	11	[0, 0, 0]	n/a	0	0	0	n/a	n/a	0.0	0	0	0	FR3	3	R1154D
2020.449	1.6	2066128	WORD	n/a	wordpools/wordpool.txt	ROOT	6	1	11	[0, 0, 0]	n/a	0	0	0	n/a	n/a	0.0	0	0	0	FR3	3	R1154D
2022.066	0.933	2067745	WORD_OFF	n/a	n/a	ROOT	6	0	11	[0, 0, 0]	n/a	0	0	0	n/a	n/a	0.0	0	0	0	FR3	3	R1154D
2022.999	1.6	2068678	WORD	n/a	wordpools/wordpool.txt	CHALK	7	0	11	[0, 0, 0]	n/a	0	0	0	n/a	n/a	0.0	0	0	0	FR3	3	R1154D
2024.616	0.917	2070295	WORD_OFF	n/a	n/a	CHALK	7	0	11	[0, 0, 0]	n/a	0	0	0	n/a	n/a	0.0	0	0	0	FR3	3	R1154D
2025.533	1.6	2071212	WORD	n/a	wordpools/wordpool.txt	STEM	8	1	11	[0, 0, 0]	n/a	0	0	0	n/a	n/a	0.0	0	0	0	FR3	3	R1154D
2027.15	0.933	2072829	WORD_OFF	n/a	n/a	STEM	8	0	11	[0, 0, 0]	n/a	0	0	0	n/a	n/a	0.0	0	0	0	FR3	3	R1154D
2028.083	1.6	2073762	WORD	n/a	wordpools/wordpool.txt	LEAF	9	1	11	[0, 0, 0]	n/a	0	0	0	n/a	n/a	0.0	0	0	0	FR3	3	R1154D
2029.7	1.001	2075379	WORD_OFF	n/a	n/a	LEAF	9	0	11	[0, 0, 0]	n/a	0	0	0	n/a	n/a	0.0	0	0	0	FR3	3	R1154D
2030.701	1.6	2076379	WORD	n/a	wordpools/wordpool.txt	GRAPE	10	0	11	[0, 0, 0]	n/a	0	0	0	n/a	n/a	0.0	0	0	0	FR3	3	R1154D
2032.318	0.8	2077996	WORD_OFF	n/a	n/a	GRAPE	10	0	11	[0, 0, 0]	n/a	0	0	0	n/a	n/a	0.0	0	0	0	FR3	3	R1154D
2033.118	1.6	2078796	WORD	n/a	wordpools/wordpool.txt	EEL	11	1	11	[0, 0, 0]	n/a	0	0	0	n/a	n/a	0.0	0	0	0	FR3	3	R1154D
2034.735	0.766	2080413	WORD_OFF	n/a	n/a	EEL	11	0	11	[0, 0, 0]	n/a	0	0	0	n/a	n/a	0.0	0	0	0	FR3	3	R1154D
2035.501	1.6	2081179	WORD	n/a	wordpools/wordpool.txt	BRANCH	12	1	11	[0, 0, 0]	n/a	0	0	0	n/a	n/a	0.0	0	0	0	FR3	3	R1154D
2037.118	0.0	2082796	DISTRACT_START	n/a	n/a	n/a	-999	0	11	[0, 0, 0]	n/a	0	0	0	n/a	n/a	0.0	0	0	0	FR3	3	R1154D
2037.118	0.001	2082796	WORD_OFF	n/a	n/a	BRANCH	12	0	11	[0, 0, 0]	n/a	0	0	0	n/a	n/a	0.0	0	0	0	FR3	3	R1154D
2037.119	0.016	2082797	START	n/a	n/a	n/a	-999	0	11	[-999, -999, -999]	n/a	0	0	0	n/a	n/a	0.0	0	0	0	FR3	3	R1154D
2037.135	3.251	2082813	PROB	3.225	n/a	n/a	-999	0	11	[3, 5, 2]	10	0	0	0	n/a	n/a	0.0	0	0	0	FR3	3	R1154D
2040.386	2.133	2086064	PROB	2.095	n/a	n/a	-999	0	11	[9, 2, 7]	18	0	0	0	n/a	n/a	0.0	0	0	0	FR3	3	R1154D
2042.519	2.534	2088197	PROB	2.499	n/a	n/a	-999	0	11	[8, 8, 5]	21	0	0	0	n/a	n/a	0.0	0	0	0	FR3	3	R1154D
2045.053	1.967	2090731	PROB	1.933	n/a	n/a	-999	0	11	[4, 5, 3]	12	0	0	0	n/a	n/a	0.0	0	0	0	FR3	3	R1154D
2047.02	2.767	2092698	PROB	2.734	n/a	n/a	-999	0	11	[8, 9, 9]	26	0	0	0	n/a	n/a	0.0	0	0	0	FR3	3	R1154D
2049.787	2.034	2095464	PROB	1.998	n/a	n/a	-999	0	11	[8, 2, 4]	14	0	0	0	n/a	n/a	0.0	0	0	0	FR3	3	R1154D
2051.821	1.317	2097498	PROB	1.285	n/a	n/a	-999	0	11	[2, 1, 9]	12	0	0	0	n/a	n/a	0.0	0	0	0	FR3	3	R1154D
2053.138	2.2	2098815	PROB	2.173	n/a	n/a	-999	0	11	[4, 8, 9]	21	0	0	0	n/a	n/a	0.0	0	0	0	FR3	3	R1154D
2055.338	1.862	2101015	PROB	1.862	n/a	n/a	-999	0	11	[6, 6, 4]	16	0	0	0	n/a	n/a	0.0	0	0	0	FR3	3	R1154D
2057.2	0.021	2102877	STOP	n/a	n/a	n/a	-999	0	11	[-999, -999, -999]	n/a	0	0	0	n/a	n/a	0.0	0	0	0	FR3	3	R1154D
2057.221	0.618	2102898	DISTRACT_END	n/a	n/a	n/a	-999	0	11	[0, 0, 0]	n/a	0	0	0	n/a	n/a	0.0	0	0	0	FR3	3	R1154D
2057.839	0.5	2103516	RETRIEVAL_ORIENT	n/a	n/a	n/a	-999	0	11	[0, 0, 0]	n/a	0	0	0	n/a	n/a	0.0	0	0	0	FR3	3	R1154D
2058.357	1.279	2104034	REC_START	n/a	n/a	n/a	-999	0	11	[0, 0, 0]	n/a	0	0	0	n/a	n/a	0.0	0	0	0	FR3	3	R1154D
2059.636	0.712	2105313	REC_WORD	1.279	n/a	ROOT	6	1	11	[0, 0, 0]	n/a	0	0	0	n/a	n/a	0.0	0	0	0	FR3	3	R1154D
2060.348	0.584	2106025	REC_WORD	1.991	n/a	LEAF	9	1	11	[0, 0, 0]	n/a	0	0	0	n/a	n/a	0.0	0	0	0	FR3	3	R1154D
2060.932	0.785	2106609	REC_WORD	2.575	n/a	STEM	8	1	11	[0, 0, 0]	n/a	0	0	0	n/a	n/a	0.0	0	0	0	FR3	3	R1154D
2061.717	1.883	2107394	REC_WORD	3.36	n/a	BRANCH	12	1	11	[0, 0, 0]	n/a	0	0	0	n/a	n/a	0.0	0	0	0	FR3	3	R1154D
2063.6	0.706	2109277	REC_WORD	5.243	n/a	PLANT	4	1	11	[0, 0, 0]	n/a	0	0	0	n/a	n/a	0.0	0	0	0	FR3	3	R1154D
2064.306	1.025	2109983	REC_WORD	5.949	n/a	CORN	3	1	11	[0, 0, 0]	n/a	0	0	0	n/a	n/a	0.0	0	0	0	FR3	3	R1154D
2065.331	0.538	2111008	REC_WORD	6.974	n/a	COW	2	1	11	[0, 0, 0]	n/a	0	0	0	n/a	n/a	0.0	0	0	0	FR3	3	R1154D
2065.869	0.747	2111546	REC_WORD	7.512	n/a	SHRIMP	1	1	11	[0, 0, 0]	n/a	0	0	0	n/a	n/a	0.0	0	0	0	FR3	3	R1154D
2066.616	6.514	2112293	REC_WORD	8.259	n/a	EEL	11	1	11	[0, 0, 0]	n/a	0	0	0	n/a	n/a	0.0	0	0	0	FR3	3	R1154D
2073.13	1.0	2118806	REC_WORD_VV	14.773	n/a	<>	-999	0	11	[0, 0, 0]	n/a	0	0	0	n/a	n/a	0.0	0	0	0	FR3	3	R1154D
2074.13	14.237	2119806	REC_WORD_VV	15.773	n/a	<>	-999	0	11	[0, 0, 0]	n/a	0	0	0	n/a	n/a	0.0	0	0	0	FR3	3	R1154D
2088.367	5.178	2134042	REC_END	n/a	n/a	n/a	-999	0	11	[0, 0, 0]	n/a	0	0	0	n/a	n/a	0.0	0	0	0	FR3	3	R1154D
2093.545	0.5	2139220	TRIAL	n/a	n/a	n/a	-999	0	12	[0, 0, 0]	n/a	0	0	0	n/a	n/a	0.0	0	0	0	FR3	3	R1154D
2094.045	10.0	2139720	COUNTDOWN_START	n/a	n/a	n/a	-999	0	12	[0, 0, 0]	n/a	0	0	0	n/a	n/a	0.0	0	0	0	FR3	3	R1154D
2104.473	0.008	2150148	COUNTDOWN_END	n/a	n/a	n/a	-999	0	12	[0, 0, 0]	n/a	0	0	0	n/a	n/a	0.0	0	0	0	FR3	3	R1154D
2104.481	1.6	2150156	ORIENT	n/a	n/a	n/a	-999	0	12	[0, 0, 0]	n/a	0	0	0	n/a	n/a	0.0	0	0	0	FR3	3	R1154D
2106.098	1.967	2151772	ORIENT_OFF	n/a	n/a	n/a	-999	0	12	[0, 0, 0]	n/a	0	0	0	n/a	n/a	0.0	0	0	0	FR3	3	R1154D
2108.065	1.6	2153739	WORD	n/a	wordpools/wordpool.txt	PLANE	1	1	12	[0, 0, 0]	n/a	0	0	0	n/a	n/a	0.0	0	0	0	FR3	3	R1154D
2109.682	0.95	2155356	WORD_OFF	n/a	n/a	PLANE	1	0	12	[0, 0, 0]	n/a	0	0	0	n/a	n/a	0.0	0	0	0	FR3	3	R1154D
2110.632	1.6	2156306	WORD	n/a	wordpools/wordpool.txt	FOG	2	0	12	[0, 0, 0]	n/a	0	0	0	n/a	n/a	0.0	0	0	0	FR3	3	R1154D
2112.248	0.801	2157922	WORD_OFF	n/a	n/a	FOG	2	0	12	[0, 0, 0]	n/a	0	0	0	n/a	n/a	0.0	0	0	0	FR3	3	R1154D
2113.049	1.6	2158723	WORD	n/a	wordpools/wordpool.txt	LAKE	3	1	12	[0, 0, 0]	n/a	0	0	0	n/a	n/a	0.0	0	0	0	FR3	3	R1154D
2114.666	0.783	2160340	WORD_OFF	n/a	n/a	LAKE	3	0	12	[0, 0, 0]	n/a	0	0	0	n/a	n/a	0.0	0	0	0	FR3	3	R1154D
2115.449	1.6	2161123	WORD	n/a	wordpools/wordpool.txt	SWAMP	4	1	12	[0, 0, 0]	n/a	0	0	0	n/a	n/a	0.0	0	0	0	FR3	3	R1154D
2117.066	0.951	2162740	WORD_OFF	n/a	n/a	SWAMP	4	0	12	[0, 0, 0]	n/a	0	0	0	n/a	n/a	0.0	0	0	0	FR3	3	R1154D
2118.017	1.6	2163691	WORD	n/a	wordpools/wordpool.txt	WING	5	1	12	[0, 0, 0]	n/a	0	0	0	n/a	n/a	0.0	0	0	0	FR3	3	R1154D
2119.634	0.85	2165308	WORD_OFF	n/a	n/a	WING	5	0	12	[0, 0, 0]	n/a	0	0	0	n/a	n/a	0.0	0	0	0	FR3	3	R1154D
2120.484	1.6	2166158	WORD	n/a	wordpools/wordpool.txt	DOCK	6	1	12	[0, 0, 0]	n/a	0	0	0	n/a	n/a	0.0	0	0	0	FR3	3	R1154D
2122.101	0.9	2167775	WORD_OFF	n/a	n/a	DOCK	6	0	12	[0, 0, 0]	n/a	0	0	0	n/a	n/a	0.0	0	0	0	FR3	3	R1154D
2123.001	1.6	2168675	WORD	n/a	wordpools/wordpool.txt	MUD	7	0	12	[0, 0, 0]	n/a	0	0	0	n/a	n/a	0.0	0	0	0	FR3	3	R1154D
2124.618	0.9	2170291	WORD_OFF	n/a	n/a	MUD	7	0	12	[0, 0, 0]	n/a	0	0	0	n/a	n/a	0.0	0	0	0	FR3	3	R1154D
2125.518	1.6	2171191	WORD	n/a	wordpools/wordpool.txt	MAZE	8	1	12	[0, 0, 0]	n/a	0	0	0	n/a	n/a	0.0	0	0	0	FR3	3	R1154D
2127.135	0.95	2172808	WORD_OFF	n/a	n/a	MAZE	8	0	12	[0, 0, 0]	n/a	0	0	0	n/a	n/a	0.0	0	0	0	FR3	3	R1154D
2128.085	1.6	2173758	WORD	n/a	wordpools/wordpool.txt	OAR	9	1	12	[0, 0, 0]	n/a	0	0	0	n/a	n/a	0.0	0	0	0	FR3	3	R1154D
2129.702	0.867	2175375	WORD_OFF	n/a	n/a	OAR	9	0	12	[0, 0, 0]	n/a	0	0	0	n/a	n/a	0.0	0	0	0	FR3	3	R1154D
2130.569	1.6	2176242	WORD	n/a	wordpools/wordpool.txt	CRANE	10	1	12	[0, 0, 0]	n/a	0	0	0	n/a	n/a	0.0	0	0	0	FR3	3	R1154D
2132.185	0.984	2177858	WORD_OFF	n/a	n/a	CRANE	10	0	12	[0, 0, 0]	n/a	0	0	0	n/a	n/a	0.0	0	0	0	FR3	3	R1154D
2133.169	1.6	2178842	WORD	n/a	wordpools/wordpool.txt	SPEAR	11	0	12	[0, 0, 0]	n/a	0	0	0	n/a	n/a	0.0	0	0	0	FR3	3	R1154D
2134.786	1.017	2180459	WORD_OFF	n/a	n/a	SPEAR	11	0	12	[0, 0, 0]	n/a	0	0	0	n/a	n/a	0.0	0	0	0	FR3	3	R1154D
2135.803	1.6	2181476	WORD	n/a	wordpools/wordpool.txt	BEACH	12	1	12	[0, 0, 0]	n/a	0	0	0	n/a	n/a	0.0	0	0	0	FR3	3	R1154D
2137.42	0.0	2183093	WORD_OFF	n/a	n/a	BEACH	12	0	12	[0, 0, 0]	n/a	0	0	0	n/a	n/a	0.0	0	0	0	FR3	3	R1154D
2137.42	0.001	2183093	DISTRACT_START	n/a	n/a	n/a	-999	0	12	[0, 0, 0]	n/a	0	0	0	n/a	n/a	0.0	0	0	0	FR3	3	R1154D
2137.421	0.016	2183094	START	n/a	n/a	n/a	-999	0	12	[-999, -999, -999]	n/a	0	0	0	n/a	n/a	0.0	0	0	0	FR3	3	R1154D
2137.437	2.034	2183110	PROB	1.996	n/a	n/a	-999	0	12	[1, 3, 1]	5	0	0	0	n/a	n/a	0.0	0	0	0	FR3	3	R1154D
2139.471	2.033	2185144	PROB	1.995	n/a	n/a	-999	0	12	[5, 7, 2]	14	0	0	0	n/a	n/a	0.0	0	0	0	FR3	3	R1154D
2141.504	1.567	2187177	PROB	1.537	n/a	n/a	-999	0	12	[1, 5, 7]	13	0	0	0	n/a	n/a	0.0	0	0	0	FR3	3	R1154D
2143.071	1.651	2188743	PROB	1.626	n/a	n/a	-999	0	12	[1, 6, 3]	10	0	0	0	n/a	n/a	0.0	0	0	0	FR3	3	R1154D
2144.722	3.667	2190394	PROB	3.639	n/a	n/a	-999	0	12	[7, 8, 7]	22	0	0	0	n/a	n/a	0.0	0	0	0	FR3	3	R1154D
2148.389	1.799	2194061	PROB	1.764	n/a	n/a	-999	0	12	[9, 4, 4]	17	0	0	0	n/a	n/a	0.0	0	0	0	FR3	3	R1154D
2150.188	2.552	2195860	PROB	2.525	n/a	n/a	-999	0	12	[7, 8, 8]	23	0	0	0	n/a	n/a	0.0	0	0	0	FR3	3	R1154D
2152.74	1.432	2198412	PROB	1.396	n/a	n/a	-999	0	12	[2, 7, 2]	11	0	0	0	n/a	n/a	0.0	0	0	0	FR3	3	R1154D
2154.172	3.252	2199844	PROB	3.214	n/a	n/a	-999	0	12	[4, 9, 3]	16	0	0	0	n/a	n/a	0.0	0	0	0	FR3	3	R1154D
2157.424	2.745	2203096	PROB	2.745	n/a	n/a	-999	0	12	[5, 7, 9]	21	0	0	0	n/a	n/a	0.0	0	0	0	FR3	3	R1154D
2160.169	0.021	2205841	STOP	n/a	n/a	n/a	-999	0	12	[-999, -999, -999]	n/a	0	0	0	n/a	n/a	0.0	0	0	0	FR3	3	R1154D
2160.19	0.617	2205862	DISTRACT_END	n/a	n/a	n/a	-999	0	12	[0, 0, 0]	n/a	0	0	0	n/a	n/a	0.0	0	0	0	FR3	3	R1154D
2160.807	0.5	2206478	RETRIEVAL_ORIENT	n/a	n/a	n/a	-999	0	12	[0, 0, 0]	n/a	0	0	0	n/a	n/a	0.0	0	0	0	FR3	3	R1154D
2161.325	0.752	2206996	REC_START	n/a	n/a	n/a	-999	0	12	[0, 0, 0]	n/a	0	0	0	n/a	n/a	0.0	0	0	0	FR3	3	R1154D
2162.077	0.633	2207748	REC_WORD	0.752	n/a	PLANE	1	1	12	[0, 0, 0]	n/a	0	0	0	n/a	n/a	0.0	0	0	0	FR3	3	R1154D
2162.71	0.55	2208381	REC_WORD	1.385	n/a	WING	5	1	12	[0, 0, 0]	n/a	0	0	0	n/a	n/a	0.0	0	0	0	FR3	3	R1154D
2163.26	0.689	2208931	REC_WORD	1.935	n/a	MAZE	8	1	12	[0, 0, 0]	n/a	0	0	0	n/a	n/a	0.0	0	0	0	FR3	3	R1154D
2163.949	1.002	2209620	REC_WORD	2.624	n/a	BEACH	12	1	12	[0, 0, 0]	n/a	0	0	0	n/a	n/a	0.0	0	0	0	FR3	3	R1154D
2164.951	0.555	2210622	REC_WORD	3.626	n/a	LAKE	3	1	12	[0, 0, 0]	n/a	0	0	0	n/a	n/a	0.0	0	0	0	FR3	3	R1154D
2165.506	1.351	2211177	REC_WORD	4.181	n/a	SWAMP	4	1	12	[0, 0, 0]	n/a	0	0	0	n/a	n/a	0.0	0	0	0	FR3	3	R1154D
2166.857	1.1	2212528	REC_WORD	5.532	n/a	DOCK	6	1	12	[0, 0, 0]	n/a	0	0	0	n/a	n/a	0.0	0	0	0	FR3	3	R1154D
2167.957	0.952	2213628	REC_WORD	6.632	n/a	OAR	9	1	12	[0, 0, 0]	n/a	0	0	0	n/a	n/a	0.0	0	0	0	FR3	3	R1154D
2168.909	10.592	2214580	REC_WORD	7.584	n/a	CRANE	10	1	12	[0, 0, 0]	n/a	0	0	0	n/a	n/a	0.0	0	0	0	FR3	3	R1154D
2179.501	0.227	2225171	REC_WORD_VV	18.176	n/a	<>	-999	0	12	[0, 0, 0]	n/a	0	0	0	n/a	n/a	0.0	0	0	0	FR3	3	R1154D
2179.728	5.291	2225398	REC_WORD	18.403	n/a	LAKE	3	1	12	[0, 0, 0]	n/a	0	0	0	n/a	n/a	0.0	0	0	0	FR3	3	R1154D
2185.019	1.0	2230689	REC_WORD_VV	23.694	n/a	<>	-999	0	12	[0, 0, 0]	n/a	0	0	0	n/a	n/a	0.0	0	0	0	FR3	3	R1154D
2186.019	3.503	2231689	REC_WORD_VV	24.694	n/a	<>	-999	0	12	[0, 0, 0]	n/a	0	0	0	n/a	n/a	0.0	0	0	0	FR3	3	R1154D
2189.522	1.0	2235192	REC_WORD_VV	28.197	n/a	<>	-999	0	12	[0, 0, 0]	n/a	0	0	0	n/a	n/a	0.0	0	0	0	FR3	3	R1154D
2190.522	0.814	2236192	REC_WORD_VV	29.197	n/a	<>	-999	0	12	[0, 0, 0]	n/a	0	0	0	n/a	n/a	0.0	0	0	0	FR3	3	R1154D
2191.336	4.311	2237006	REC_END	n/a	n/a	n/a	-999	0	12	[0, 0, 0]	n/a	0	0	0	n/a	n/a	0.0	0	0	0	FR3	3	R1154D
2195.647	0.5	2241317	TRIAL	n/a	n/a	n/a	-999	0	13	[0, 0, 0]	n/a	0	0	0	n/a	n/a	0.0	0	0	0	FR3	3	R1154D
2196.147	10.0	2241817	COUNTDOWN_START	n/a	n/a	n/a	-999	0	13	[0, 0, 0]	n/a	0	0	0	n/a	n/a	0.0	0	0	0	FR3	3	R1154D
2206.575	0.008	2252244	COUNTDOWN_END	n/a	n/a	n/a	-999	0	13	[0, 0, 0]	n/a	0	0	0	n/a	n/a	0.0	0	0	0	FR3	3	R1154D
2206.583	1.6	2252252	ORIENT	n/a	n/a	n/a	-999	0	13	[0, 0, 0]	n/a	0	0	0	n/a	n/a	0.0	0	0	0	FR3	3	R1154D
2208.199	2.235	2253868	ORIENT_OFF	n/a	n/a	n/a	-999	0	13	[0, 0, 0]	n/a	0	0	0	n/a	n/a	0.0	0	0	0	FR3	3	R1154D
2210.434	1.6	2256103	WORD	n/a	wordpools/wordpool.txt	FLAG	1	1	13	[0, 0, 0]	n/a	0	0	0	n/a	n/a	0.0	0	0	0	FR3	3	R1154D
2212.051	0.9	2257720	WORD_OFF	n/a	n/a	FLAG	1	0	13	[0, 0, 0]	n/a	0	0	0	n/a	n/a	0.0	0	0	0	FR3	3	R1154D
2212.951	1.6	2258620	WORD	n/a	wordpools/wordpool.txt	STORM	2	1	13	[0, 0, 0]	n/a	0	0	0	n/a	n/a	0.0	0	0	0	FR3	3	R1154D
2214.568	1.0	2260237	WORD_OFF	n/a	n/a	STORM	2	0	13	[0, 0, 0]	n/a	0	0	0	n/a	n/a	0.0	0	0	0	FR3	3	R1154D
2215.568	1.6	2261237	WORD	n/a	wordpools/wordpool.txt	ICE	3	1	13	[0, 0, 0]	n/a	0	0	0	n/a	n/a	0.0	0	0	0	FR3	3	R1154D
2217.184	0.784	2262852	WORD_OFF	n/a	n/a	ICE	3	0	13	[0, 0, 0]	n/a	0	0	0	n/a	n/a	0.0	0	0	0	FR3	3	R1154D
2217.968	1.6	2263636	WORD	n/a	wordpools/wordpool.txt	SAIL	4	1	13	[0, 0, 0]	n/a	0	0	0	n/a	n/a	0.0	0	0	0	FR3	3	R1154D
2219.585	0.967	2265253	WORD_OFF	n/a	n/a	SAIL	4	0	13	[0, 0, 0]	n/a	0	0	0	n/a	n/a	0.0	0	0	0	FR3	3	R1154D
2220.552	1.6	2266220	WORD	n/a	wordpools/wordpool.txt	SKY	5	1	13	[0, 0, 0]	n/a	0	0	0	n/a	n/a	0.0	0	0	0	FR3	3	R1154D
2222.169	0.967	2267837	WORD_OFF	n/a	n/a	SKY	5	0	13	[0, 0, 0]	n/a	0	0	0	n/a	n/a	0.0	0	0	0	FR3	3	R1154D
2223.136	1.6	2268804	WORD	n/a	wordpools/wordpool.txt	SEA	6	1	13	[0, 0, 0]	n/a	0	0	0	n/a	n/a	0.0	0	0	0	FR3	3	R1154D
2224.753	0.983	2270421	WORD_OFF	n/a	n/a	SEA	6	0	13	[0, 0, 0]	n/a	0	0	0	n/a	n/a	0.0	0	0	0	FR3	3	R1154D
2225.736	1.6	2271404	WORD	n/a	wordpools/wordpool.txt	OAK	7	1	13	[0, 0, 0]	n/a	0	0	0	n/a	n/a	0.0	0	0	0	FR3	3	R1154D
2227.353	0.816	2273021	WORD_OFF	n/a	n/a	OAK	7	0	13	[0, 0, 0]	n/a	0	0	0	n/a	n/a	0.0	0	0	0	FR3	3	R1154D
2228.169	1.6	2273837	WORD	n/a	wordpools/wordpool.txt	BOY	8	1	13	[0, 0, 0]	n/a	0	0	0	n/a	n/a	0.0	0	0	0	FR3	3	R1154D
2229.787	0.917	2275455	WORD_OFF	n/a	n/a	BOY	8	0	13	[0, 0, 0]	n/a	0	0	0	n/a	n/a	0.0	0	0	0	FR3	3	R1154D
2230.704	1.6	2276372	WORD	n/a	wordpools/wordpool.txt	LAND	9	1	13	[0, 0, 0]	n/a	0	0	0	n/a	n/a	0.0	0	0	0	FR3	3	R1154D
2232.321	0.767	2277989	WORD_OFF	n/a	n/a	LAND	9	0	13	[0, 0, 0]	n/a	0	0	0	n/a	n/a	0.0	0	0	0	FR3	3	R1154D
2233.088	1.6	2278756	WORD	n/a	wordpools/wordpool.txt	CLOUD	10	0	13	[0, 0, 0]	n/a	0	0	0	n/a	n/a	0.0	0	0	0	FR3	3	R1154D
2234.705	0.9	2280373	WORD_OFF	n/a	n/a	CLOUD	10	0	13	[0, 0, 0]	n/a	0	0	0	n/a	n/a	0.0	0	0	0	FR3	3	R1154D
2235.605	1.6	2281272	WORD	n/a	wordpools/wordpool.txt	CUBE	11	0	13	[0, 0, 0]	n/a	0	0	0	n/a	n/a	0.0	0	0	0	FR3	3	R1154D
2237.221	0.801	2282888	WORD_OFF	n/a	n/a	CUBE	11	0	13	[0, 0, 0]	n/a	0	0	0	n/a	n/a	0.0	0	0	0	FR3	3	R1154D
2238.022	1.6	2283689	WORD	n/a	wordpools/wordpool.txt	SUN	12	1	13	[0, 0, 0]	n/a	0	0	0	n/a	n/a	0.0	0	0	0	FR3	3	R1154D
2239.639	0.0	2285306	WORD_OFF	n/a	n/a	SUN	12	0	13	[0, 0, 0]	n/a	0	0	0	n/a	n/a	0.0	0	0	0	FR3	3	R1154D
2239.639	0.001	2285306	DISTRACT_START	n/a	n/a	n/a	-999	0	13	[0, 0, 0]	n/a	0	0	0	n/a	n/a	0.0	0	0	0	FR3	3	R1154D
2239.64	0.016	2285307	START	n/a	n/a	n/a	-999	0	13	[-999, -999, -999]	n/a	0	0	0	n/a	n/a	0.0	0	0	0	FR3	3	R1154D
2239.656	3.7	2285323	PROB	3.665	n/a	n/a	-999	0	13	[7, 3, 2]	12	0	0	0	n/a	n/a	0.0	0	0	0	FR3	3	R1154D
2243.356	2.567	2289023	PROB	2.533	n/a	n/a	-999	0	13	[3, 2, 4]	9	0	0	0	n/a	n/a	0.0	0	0	0	FR3	3	R1154D
2245.923	1.601	2291590	PROB	1.566	n/a	n/a	-999	0	13	[6, 3, 2]	11	0	0	0	n/a	n/a	0.0	0	0	0	FR3	3	R1154D
2247.524	2.367	2293191	PROB	2.334	n/a	n/a	-999	0	13	[1, 3, 5]	9	0	0	0	n/a	n/a	0.0	0	0	0	FR3	3	R1154D
2249.891	2.299	2295558	PROB	2.27	n/a	n/a	-999	0	13	[6, 8, 4]	18	0	0	0	n/a	n/a	0.0	0	0	0	FR3	3	R1154D
2252.19	2.885	2297857	PROB	2.851	n/a	n/a	-999	0	13	[4, 4, 7]	15	0	0	0	n/a	n/a	0.0	0	0	0	FR3	3	R1154D
2255.075	2.667	2300741	PROB	2.639	n/a	n/a	-999	0	13	[8, 7, 6]	21	0	0	0	n/a	n/a	0.0	0	0	0	FR3	3	R1154D
2257.742	1.867	2303408	PROB	1.843	n/a	n/a	-999	0	13	[3, 7, 2]	12	0	0	0	n/a	n/a	0.0	0	0	0	FR3	3	R1154D
2259.609	1.776	2305275	PROB	1.776	n/a	n/a	-999	0	13	[3, 6, 5]	14	0	0	0	n/a	n/a	0.0	0	0	0	FR3	3	R1154D
2261.385	0.008	2307051	STOP	n/a	n/a	n/a	-999	0	13	[-999, -999, -999]	n/a	0	0	0	n/a	n/a	0.0	0	0	0	FR3	3	R1154D
2261.393	0.55	2307059	DISTRACT_END	n/a	n/a	n/a	-999	0	13	[0, 0, 0]	n/a	0	0	0	n/a	n/a	0.0	0	0	0	FR3	3	R1154D
2261.943	0.5	2307609	RETRIEVAL_ORIENT	n/a	n/a	n/a	-999	0	13	[0, 0, 0]	n/a	0	0	0	n/a	n/a	0.0	0	0	0	FR3	3	R1154D
2262.46	0.734	2308126	REC_START	n/a	n/a	n/a	-999	0	13	[0, 0, 0]	n/a	0	0	0	n/a	n/a	0.0	0	0	0	FR3	3	R1154D
2263.194	1.073	2308860	REC_WORD	0.734	n/a	SKY	5	1	13	[0, 0, 0]	n/a	0	0	0	n/a	n/a	0.0	0	0	0	FR3	3	R1154D
2264.267	1.302	2309933	REC_WORD	1.807	n/a	ICE	3	1	13	[0, 0, 0]	n/a	0	0	0	n/a	n/a	0.0	0	0	0	FR3	3	R1154D
2265.569	2.128	2311235	REC_WORD	3.109	n/a	LAND	9	1	13	[0, 0, 0]	n/a	0	0	0	n/a	n/a	0.0	0	0	0	FR3	3	R1154D
2267.697	1.516	2313363	REC_WORD	5.237	n/a	BOY	8	1	13	[0, 0, 0]	n/a	0	0	0	n/a	n/a	0.0	0	0	0	FR3	3	R1154D
2269.213	1.343	2314879	REC_WORD	6.753	n/a	SEA	6	1	13	[0, 0, 0]	n/a	0	0	0	n/a	n/a	0.0	0	0	0	FR3	3	R1154D
2270.556	4.42	2316222	REC_WORD	8.096	n/a	SAIL	4	1	13	[0, 0, 0]	n/a	0	0	0	n/a	n/a	0.0	0	0	0	FR3	3	R1154D
2274.976	0.649	2320641	REC_WORD	12.516	n/a	OAK	7	1	13	[0, 0, 0]	n/a	0	0	0	n/a	n/a	0.0	0	0	0	FR3	3	R1154D
2275.625	2.239	2321290	REC_WORD	13.165	n/a	FLAG	1	1	13	[0, 0, 0]	n/a	0	0	0	n/a	n/a	0.0	0	0	0	FR3	3	R1154D
2277.864	2.931	2323529	REC_WORD	15.404	n/a	SUN	12	1	13	[0, 0, 0]	n/a	0	0	0	n/a	n/a	0.0	0	0	0	FR3	3	R1154D
2280.795	11.676	2326460	REC_WORD	18.335	n/a	STORM	2	1	13	[0, 0, 0]	n/a	0	0	0	n/a	n/a	0.0	0	0	0	FR3	3	R1154D
2292.471	4.495	2338135	REC_END	n/a	n/a	n/a	-999	0	13	[0, 0, 0]	n/a	0	0	0	n/a	n/a	0.0	0	0	0	FR3	3	R1154D
2296.966	0.5	2342630	TRIAL	n/a	n/a	n/a	-999	0	14	[0, 0, 0]	n/a	0	0	0	n/a	n/a	0.0	0	0	0	FR3	3	R1154D
2297.466	10.0	2343130	COUNTDOWN_START	n/a	n/a	n/a	-999	0	14	[0, 0, 0]	n/a	0	0	0	n/a	n/a	0.0	0	0	0	FR3	3	R1154D
2307.894	0.007	2353558	COUNTDOWN_END	n/a	n/a	n/a	-999	0	14	[0, 0, 0]	n/a	0	0	0	n/a	n/a	0.0	0	0	0	FR3	3	R1154D
2307.901	1.6	2353565	ORIENT	n/a	n/a	n/a	-999	0	14	[0, 0, 0]	n/a	0	0	0	n/a	n/a	0.0	0	0	0	FR3	3	R1154D
2309.518	1.867	2355182	ORIENT_OFF	n/a	n/a	n/a	-999	0	14	[0, 0, 0]	n/a	0	0	0	n/a	n/a	0.0	0	0	0	FR3	3	R1154D
2311.385	1.6	2357048	WORD	n/a	wordpools/wordpool.txt	TOAD	1	1	14	[0, 0, 0]	n/a	0	0	0	n/a	n/a	0.0	0	0	0	FR3	3	R1154D
2313.002	0.934	2358665	WORD_OFF	n/a	n/a	TOAD	1	0	14	[0, 0, 0]	n/a	0	0	0	n/a	n/a	0.0	0	0	0	FR3	3	R1154D
2313.936	1.6	2359599	WORD	n/a	wordpools/wordpool.txt	PHONE	2	1	14	[0, 0, 0]	n/a	0	0	0	n/a	n/a	0.0	0	0	0	FR3	3	R1154D
2315.553	0.883	2361216	WORD_OFF	n/a	n/a	PHONE	2	0	14	[0, 0, 0]	n/a	0	0	0	n/a	n/a	0.0	0	0	0	FR3	3	R1154D
2316.436	1.6	2362099	WORD	n/a	wordpools/wordpool.txt	CORD	3	1	14	[0, 0, 0]	n/a	0	0	0	n/a	n/a	0.0	0	0	0	FR3	3	R1154D
2318.053	0.85	2363716	WORD_OFF	n/a	n/a	CORD	3	0	14	[0, 0, 0]	n/a	0	0	0	n/a	n/a	0.0	0	0	0	FR3	3	R1154D
2318.903	1.6	2364566	WORD	n/a	wordpools/wordpool.txt	WAVE	4	1	14	[0, 0, 0]	n/a	0	0	0	n/a	n/a	0.0	0	0	0	FR3	3	R1154D
2320.52	0.934	2366183	WORD_OFF	n/a	n/a	WAVE	4	0	14	[0, 0, 0]	n/a	0	0	0	n/a	n/a	0.0	0	0	0	FR3	3	R1154D
2321.454	1.6	2367117	WORD	n/a	wordpools/wordpool.txt	BANK	5	0	14	[0, 0, 0]	n/a	0	0	0	n/a	n/a	0.0	0	0	0	FR3	3	R1154D
2323.071	0.883	2368734	WORD_OFF	n/a	n/a	BANK	5	0	14	[0, 0, 0]	n/a	0	0	0	n/a	n/a	0.0	0	0	0	FR3	3	R1154D
2323.954	1.6	2369617	WORD	n/a	wordpools/wordpool.txt	MOON	6	0	14	[0, 0, 0]	n/a	0	0	0	n/a	n/a	0.0	0	0	0	FR3	3	R1154D
2325.571	0.95	2371234	WORD_OFF	n/a	n/a	MOON	6	0	14	[0, 0, 0]	n/a	0	0	0	n/a	n/a	0.0	0	0	0	FR3	3	R1154D
2326.521	1.6	2372184	WORD	n/a	wordpools/wordpool.txt	HEART	7	0	14	[0, 0, 0]	n/a	0	0	0	n/a	n/a	0.0	0	0	0	FR3	3	R1154D
2328.138	0.851	2373801	WORD_OFF	n/a	n/a	HEART	7	0	14	[0, 0, 0]	n/a	0	0	0	n/a	n/a	0.0	0	0	0	FR3	3	R1154D
2328.989	1.6	2374651	WORD	n/a	wordpools/wordpool.txt	FROG	8	1	14	[0, 0, 0]	n/a	0	0	0	n/a	n/a	0.0	0	0	0	FR3	3	R1154D
2330.606	0.85	2376268	WORD_OFF	n/a	n/a	FROG	8	0	14	[0, 0, 0]	n/a	0	0	0	n/a	n/a	0.0	0	0	0	FR3	3	R1154D
2331.456	1.6	2377118	WORD	n/a	wordpools/wordpool.txt	CASH	9	0	14	[0, 0, 0]	n/a	0	0	0	n/a	n/a	0.0	0	0	0	FR3	3	R1154D
2333.073	0.95	2378735	WORD_OFF	n/a	n/a	CASH	9	0	14	[0, 0, 0]	n/a	0	0	0	n/a	n/a	0.0	0	0	0	FR3	3	R1154D
2334.023	1.6	2379685	WORD	n/a	wordpools/wordpool.txt	SPONGE	10	0	14	[0, 0, 0]	n/a	0	0	0	n/a	n/a	0.0	0	0	0	FR3	3	R1154D
2335.64	0.85	2381302	WORD_OFF	n/a	n/a	SPONGE	10	0	14	[0, 0, 0]	n/a	0	0	0	n/a	n/a	0.0	0	0	0	FR3	3	R1154D
2336.49	1.6	2382152	WORD	n/a	wordpools/wordpool.txt	FILM	11	0	14	[0, 0, 0]	n/a	0	0	0	n/a	n/a	0.0	0	0	0	FR3	3	R1154D
2338.107	0.95	2383769	WORD_OFF	n/a	n/a	FILM	11	0	14	[0, 0, 0]	n/a	0	0	0	n/a	n/a	0.0	0	0	0	FR3	3	R1154D
2339.057	1.6	2384719	WORD	n/a	wordpools/wordpool.txt	BEAR	12	1	14	[0, 0, 0]	n/a	0	0	0	n/a	n/a	0.0	0	0	0	FR3	3	R1154D
2340.674	0.0	2386336	DISTRACT_START	n/a	n/a	n/a	-999	0	14	[0, 0, 0]	n/a	0	0	0	n/a	n/a	0.0	0	0	0	FR3	3	R1154D
2340.674	0.001	2386336	WORD_OFF	n/a	n/a	BEAR	12	0	14	[0, 0, 0]	n/a	0	0	0	n/a	n/a	0.0	0	0	0	FR3	3	R1154D
2340.675	0.016	2386337	START	n/a	n/a	n/a	-999	0	14	[-999, -999, -999]	n/a	0	0	0	n/a	n/a	0.0	0	0	0	FR3	3	R1154D
2340.691	3.267	2386353	PROB	3.239	n/a	n/a	-999	0	14	[4, 5, 3]	12	0	0	0	n/a	n/a	0.0	0	0	0	FR3	3	R1154D
2343.958	2.467	2389620	PROB	2.436	n/a	n/a	-999	0	14	[1, 3, 6]	10	0	0	0	n/a	n/a	0.0	0	0	0	FR3	3	R1154D
2346.425	2.1	2392087	PROB	2.072	n/a	n/a	-999	0	14	[7, 5, 7]	19	0	0	0	n/a	n/a	0.0	0	0	0	FR3	3	R1154D
2348.525	3.418	2394186	PROB	3.388	n/a	n/a	-999	0	14	[5, 6, 3]	14	0	0	0	n/a	n/a	0.0	0	0	0	FR3	3	R1154D
2351.943	1.55	2397604	PROB	1.514	n/a	n/a	-999	0	14	[1, 8, 3]	12	0	0	0	n/a	n/a	0.0	0	0	0	FR3	3	R1154D
2353.493	1.95	2399154	PROB	1.924	n/a	n/a	-999	0	14	[9, 3, 7]	19	0	0	0	n/a	n/a	0.0	0	0	0	FR3	3	R1154D
2355.443	1.85	2401104	PROB	1.813	n/a	n/a	-999	0	14	[1, 5, 3]	9	0	0	0	n/a	n/a	0.0	0	0	0	FR3	3	R1154D
2357.293	1.584	2402954	PROB	1.548	n/a	n/a	-999	0	14	[5, 1, 2]	8	0	0	0	n/a	n/a	0.0	0	0	0	FR3	3	R1154D
2358.877	2.276	2404538	PROB	2.276	n/a	n/a	-999	0	14	[6, 8, 1]	15	0	0	0	n/a	n/a	0.0	0	0	0	FR3	3	R1154D
2361.153	0.008	2406814	STOP	n/a	n/a	n/a	-999	0	14	[-999, -999, -999]	n/a	0	0	0	n/a	n/a	0.0	0	0	0	FR3	3	R1154D
2361.161	0.667	2406822	DISTRACT_END	n/a	n/a	n/a	-999	0	14	[0, 0, 0]	n/a	0	0	0	n/a	n/a	0.0	0	0	0	FR3	3	R1154D
2361.828	0.5	2407489	RETRIEVAL_ORIENT	n/a	n/a	n/a	-999	0	14	[0, 0, 0]	n/a	0	0	0	n/a	n/a	0.0	0	0	0	FR3	3	R1154D
2362.345	1.92	2408006	REC_START	n/a	n/a	n/a	-999	0	14	[0, 0, 0]	n/a	0	0	0	n/a	n/a	0.0	0	0	0	FR3	3	R1154D
2364.265	0.592	2409926	REC_WORD	1.92	n/a	BEAR	12	1	14	[0, 0, 0]	n/a	0	0	0	n/a	n/a	0.0	0	0	0	FR3	3	R1154D
2364.857	0.579	2410518	REC_WORD	2.512	n/a	TOAD	1	1	14	[0, 0, 0]	n/a	0	0	0	n/a	n/a	0.0	0	0	0	FR3	3	R1154D
2365.436	2.045	2411097	REC_WORD	3.091	n/a	FROG	8	1	14	[0, 0, 0]	n/a	0	0	0	n/a	n/a	0.0	0	0	0	FR3	3	R1154D
2367.481	1.435	2413141	REC_WORD	5.136	n/a	PHONE	2	1	14	[0, 0, 0]	n/a	0	0	0	n/a	n/a	0.0	0	0	0	FR3	3	R1154D
2368.916	5.776	2414576	REC_WORD	6.571	n/a	CORD	3	1	14	[0, 0, 0]	n/a	0	0	0	n/a	n/a	0.0	0	0	0	FR3	3	R1154D
2374.692	6.116	2420352	REC_WORD	12.347	n/a	WAVE	4	1	14	[0, 0, 0]	n/a	0	0	0	n/a	n/a	0.0	0	0	0	FR3	3	R1154D
2380.808	1.0	2426468	REC_WORD_VV	18.463	n/a	<>	-999	0	14	[0, 0, 0]	n/a	0	0	0	n/a	n/a	0.0	0	0	0	FR3	3	R1154D
2381.808	10.547	2427468	REC_WORD_VV	19.463	n/a	<>	-999	0	14	[0, 0, 0]	n/a	0	0	0	n/a	n/a	0.0	0	0	0	FR3	3	R1154D
2392.355	4.363	2438014	REC_END	n/a	n/a	n/a	-999	0	14	[0, 0, 0]	n/a	0	0	0	n/a	n/a	0.0	0	0	0	FR3	3	R1154D
2396.718	0.5	2442377	TRIAL	n/a	n/a	n/a	-999	0	15	[0, 0, 0]	n/a	0	0	0	n/a	n/a	0.0	0	0	0	FR3	3	R1154D
2397.218	10.0	2442877	COUNTDOWN_START	n/a	n/a	n/a	-999	0	15	[0, 0, 0]	n/a	0	0	0	n/a	n/a	0.0	0	0	0	FR3	3	R1154D
2407.646	0.007	2453304	COUNTDOWN_END	n/a	n/a	n/a	-999	0	15	[0, 0, 0]	n/a	0	0	0	n/a	n/a	0.0	0	0	0	FR3	3	R1154D
2407.653	1.6	2453311	ORIENT	n/a	n/a	n/a	-999	0	15	[0, 0, 0]	n/a	0	0	0	n/a	n/a	0.0	0	0	0	FR3	3	R1154D
2409.269	2.101	2454927	ORIENT_OFF	n/a	n/a	n/a	-999	0	15	[0, 0, 0]	n/a	0	0	0	n/a	n/a	0.0	0	0	0	FR3	3	R1154D
2411.37	1.6	2457028	WORD	n/a	wordpools/wordpool.txt	GEESE	1	1	15	[0, 0, 0]	n/a	0	0	0	n/a	n/a	0.0	0	0	0	FR3	3	R1154D
2412.987	0.784	2458645	WORD_OFF	n/a	n/a	GEESE	1	0	15	[0, 0, 0]	n/a	0	0	0	n/a	n/a	0.0	0	0	0	FR3	3	R1154D
2413.771	1.6	2459429	WORD	n/a	wordpools/wordpool.txt	SNAIL	2	0	15	[0, 0, 0]	n/a	0	0	0	n/a	n/a	0.0	0	0	0	FR3	3	R1154D
2415.387	1.001	2461045	WORD_OFF	n/a	n/a	SNAIL	2	0	15	[0, 0, 0]	n/a	0	0	0	n/a	n/a	0.0	0	0	0	FR3	3	R1154D
2416.388	1.6	2462046	WORD	n/a	wordpools/wordpool.txt	FARM	3	1	15	[0, 0, 0]	n/a	0	0	0	n/a	n/a	0.0	0	0	0	FR3	3	R1154D
2418.005	1.0	2463663	WORD_OFF	n/a	n/a	FARM	3	0	15	[0, 0, 0]	n/a	0	0	0	n/a	n/a	0.0	0	0	0	FR3	3	R1154D
2419.005	1.6	2464663	WORD	n/a	wordpools/wordpool.txt	WORLD	4	0	15	[0, 0, 0]	n/a	0	0	0	n/a	n/a	0.0	0	0	0	FR3	3	R1154D
2420.622	0.784	2466280	WORD_OFF	n/a	n/a	WORLD	4	0	15	[0, 0, 0]	n/a	0	0	0	n/a	n/a	0.0	0	0	0	FR3	3	R1154D
2421.406	1.6	2467064	WORD	n/a	wordpools/wordpool.txt	BRICK	5	1	15	[0, 0, 0]	n/a	0	0	0	n/a	n/a	0.0	0	0	0	FR3	3	R1154D
2423.022	0.834	2468679	WORD_OFF	n/a	n/a	BRICK	5	0	15	[0, 0, 0]	n/a	0	0	0	n/a	n/a	0.0	0	0	0	FR3	3	R1154D
2423.856	1.6	2469513	WORD	n/a	wordpools/wordpool.txt	WOLF	6	0	15	[0, 0, 0]	n/a	0	0	0	n/a	n/a	0.0	0	0	0	FR3	3	R1154D
2425.473	0.867	2471130	WORD_OFF	n/a	n/a	WOLF	6	0	15	[0, 0, 0]	n/a	0	0	0	n/a	n/a	0.0	0	0	0	FR3	3	R1154D
2426.34	1.6	2471997	WORD	n/a	wordpools/wordpool.txt	SNOW	7	0	15	[0, 0, 0]	n/a	0	0	0	n/a	n/a	0.0	0	0	0	FR3	3	R1154D
2427.957	0.817	2473614	WORD_OFF	n/a	n/a	SNOW	7	0	15	[0, 0, 0]	n/a	0	0	0	n/a	n/a	0.0	0	0	0	FR3	3	R1154D
2428.774	1.6	2474431	WORD	n/a	wordpools/wordpool.txt	CHIEF	8	0	15	[0, 0, 0]	n/a	0	0	0	n/a	n/a	0.0	0	0	0	FR3	3	R1154D
2430.39	0.967	2476047	WORD_OFF	n/a	n/a	CHIEF	8	0	15	[0, 0, 0]	n/a	0	0	0	n/a	n/a	0.0	0	0	0	FR3	3	R1154D
2431.357	1.6	2477014	WORD	n/a	wordpools/wordpool.txt	FISH	9	0	15	[0, 0, 0]	n/a	0	0	0	n/a	n/a	0.0	0	0	0	FR3	3	R1154D
2432.974	0.95	2478631	WORD_OFF	n/a	n/a	FISH	9	0	15	[0, 0, 0]	n/a	0	0	0	n/a	n/a	0.0	0	0	0	FR3	3	R1154D
2433.924	1.6	2479581	WORD	n/a	wordpools/wordpool.txt	STONE	10	0	15	[0, 0, 0]	n/a	0	0	0	n/a	n/a	0.0	0	0	0	FR3	3	R1154D
2435.541	0.801	2481198	WORD_OFF	n/a	n/a	STONE	10	0	15	[0, 0, 0]	n/a	0	0	0	n/a	n/a	0.0	0	0	0	FR3	3	R1154D
2436.342	1.6	2481999	WORD	n/a	wordpools/wordpool.txt	GOLD	11	1	15	[0, 0, 0]	n/a	0	0	0	n/a	n/a	0.0	0	0	0	FR3	3	R1154D
2437.959	0.766	2483616	WORD_OFF	n/a	n/a	GOLD	11	0	15	[0, 0, 0]	n/a	0	0	0	n/a	n/a	0.0	0	0	0	FR3	3	R1154D
2438.725	1.6	2484382	WORD	n/a	wordpools/wordpool.txt	SHEEP	12	0	15	[0, 0, 0]	n/a	0	0	0	n/a	n/a	0.0	0	0	0	FR3	3	R1154D
2440.342	0.0	2485999	WORD_OFF	n/a	n/a	SHEEP	12	0	15	[0, 0, 0]	n/a	0	0	0	n/a	n/a	0.0	0	0	0	FR3	3	R1154D
2440.342	0.001	2485999	DISTRACT_START	n/a	n/a	n/a	-999	0	15	[0, 0, 0]	n/a	0	0	0	n/a	n/a	0.0	0	0	0	FR3	3	R1154D
2440.343	0.016	2486000	START	n/a	n/a	n/a	-999	0	15	[-999, -999, -999]	n/a	0	0	0	n/a	n/a	0.0	0	0	0	FR3	3	R1154D
2440.359	2.816	2486016	PROB	2.779	n/a	n/a	-999	0	15	[4, 2, 6]	12	0	0	0	n/a	n/a	0.0	0	0	0	FR3	3	R1154D
2443.175	1.318	2488831	PROB	1.29	n/a	n/a	-999	0	15	[2, 8, 1]	11	0	0	0	n/a	n/a	0.0	0	0	0	FR3	3	R1154D
2444.493	2.034	2490149	PROB	2.004	n/a	n/a	-999	0	15	[5, 6, 6]	17	0	0	0	n/a	n/a	0.0	0	0	0	FR3	3	R1154D
2446.527	1.3	2492183	PROB	1.267	n/a	n/a	-999	0	15	[2, 5, 5]	12	0	0	0	n/a	n/a	0.0	0	0	0	FR3	3	R1154D
2447.827	1.684	2493483	PROB	1.654	n/a	n/a	-999	0	15	[5, 4, 2]	11	0	0	0	n/a	n/a	0.0	0	0	0	FR3	3	R1154D
2449.511	1.782	2495167	PROB	1.746	n/a	n/a	-999	0	15	[3, 8, 8]	19	0	0	0	n/a	n/a	0.0	0	0	0	FR3	3	R1154D
2451.293	1.735	2496949	PROB	1.7	n/a	n/a	-999	0	15	[1, 9, 8]	18	0	0	0	n/a	n/a	0.0	0	0	0	FR3	3	R1154D
2453.028	2.717	2498684	PROB	2.684	n/a	n/a	-999	0	15	[2, 1, 2]	5	0	0	0	n/a	n/a	0.0	0	0	0	FR3	3	R1154D
2455.745	1.85	2501401	PROB	1.817	n/a	n/a	-999	0	15	[8, 6, 4]	18	0	0	0	n/a	n/a	0.0	0	0	0	FR3	3	R1154D
2457.595	2.99	2503251	PROB	2.99	n/a	n/a	-999	0	15	[7, 1, 6]	14	0	0	0	n/a	n/a	0.0	0	0	0	FR3	3	R1154D
2460.585	0.011	2506240	STOP	n/a	n/a	n/a	-999	0	15	[-999, -999, -999]	n/a	0	0	0	n/a	n/a	0.0	0	0	0	FR3	3	R1154D
2460.596	0.599	2506251	DISTRACT_END	n/a	n/a	n/a	-999	0	15	[0, 0, 0]	n/a	0	0	0	n/a	n/a	0.0	0	0	0	FR3	3	R1154D
2461.195	0.5	2506850	RETRIEVAL_ORIENT	n/a	n/a	n/a	-999	0	15	[0, 0, 0]	n/a	0	0	0	n/a	n/a	0.0	0	0	0	FR3	3	R1154D
2461.714	1.135	2507369	REC_START	n/a	n/a	n/a	-999	0	15	[0, 0, 0]	n/a	0	0	0	n/a	n/a	0.0	0	0	0	FR3	3	R1154D
2462.849	0.696	2508504	REC_WORD	1.135	n/a	SHRIMP	-999	0	15	[0, 0, 0]	n/a	0	0	0	n/a	n/a	0.0	0	0	0	FR3	3	R1154D
2463.545	2.253	2509200	REC_WORD	1.831	n/a	GEESE	1	1	15	[0, 0, 0]	n/a	0	0	0	n/a	n/a	0.0	0	0	0	FR3	3	R1154D
2465.798	0.525	2511453	REC_WORD	4.084	n/a	BARN	-999	0	15	[0, 0, 0]	n/a	0	0	0	n/a	n/a	0.0	0	0	0	FR3	3	R1154D
2466.323	0.677	2511978	REC_WORD	4.609	n/a	FARM	3	1	15	[0, 0, 0]	n/a	0	0	0	n/a	n/a	0.0	0	0	0	FR3	3	R1154D
2467.0	0.517	2512655	REC_WORD	5.286	n/a	BRICK	5	1	15	[0, 0, 0]	n/a	0	0	0	n/a	n/a	0.0	0	0	0	FR3	3	R1154D
2467.517	24.208	2513172	REC_WORD	5.803	n/a	GOLD	11	1	15	[0, 0, 0]	n/a	0	0	0	n/a	n/a	0.0	0	0	0	FR3	3	R1154D
2491.725	4.361	2537379	REC_END	n/a	n/a	n/a	-999	0	15	[0, 0, 0]	n/a	0	0	0	n/a	n/a	0.0	0	0	0	FR3	3	R1154D
2496.086	0.5	2541740	TRIAL	n/a	n/a	n/a	-999	0	16	[0, 0, 0]	n/a	0	1	0	n/a	n/a	0.0	0	0	0	FR3	3	R1154D
2496.586	10.0	2542240	COUNTDOWN_START	n/a	n/a	n/a	-999	0	16	[0, 0, 0]	n/a	0	1	0	n/a	n/a	0.0	0	0	0	FR3	3	R1154D
2507.014	0.007	2552667	COUNTDOWN_END	n/a	n/a	n/a	-999	0	16	[0, 0, 0]	n/a	0	1	0	n/a	n/a	0.0	0	0	0	FR3	3	R1154D
2507.021	1.6	2552674	ORIENT	n/a	n/a	n/a	-999	0	16	[0, 0, 0]	n/a	0	1	0	n/a	n/a	0.0	0	0	0	FR3	3	R1154D
2508.638	2.151	2554291	ORIENT_OFF	n/a	n/a	n/a	-999	0	16	[0, 0, 0]	n/a	0	1	0	n/a	n/a	0.0	0	0	0	FR3	3	R1154D
2510.789	1.6	2556442	WORD	n/a	wordpools/wordpool.txt	NAIL	1	1	16	[0, 0, 0]	n/a	0	1	0	n/a	n/a	0.0	0	0	0	FR3	3	R1154D
2512.368	0.0	2558021	STIM_ON	n/a	n/a	NAIL	1	1	16	[0, 0, 0]	n/a	1	1	500	LTCG29	LTCG30	1000.0	200	100	300	FR3	3	R1154D
2512.405	0.463	2558058	WORD_OFF	n/a	n/a	NAIL	1	0	16	[0, 0, 0]	n/a	1	1	500	LTCG29	LTCG30	1000.0	200	100	300	FR3	3	R1154D
2512.868	0.353	2558521	STIM_OFF	n/a	n/a	n/a	1	0	16	[0, 0, 0]	n/a	0	1	500	LTCG29	LTCG30	1000.0	200	100	300	FR3	3	R1154D
2513.221	1.6	2558874	WORD	n/a	wordpools/wordpool.txt	TIE	2	0	16	[0, 0, 0]	n/a	0	1	0	n/a	n/a	0.0	0	0	0	FR3	3	R1154D
2514.822	0.867	2560475	WORD_OFF	n/a	n/a	TIE	2	0	16	[0, 0, 0]	n/a	0	1	0	n/a	n/a	0.0	0	0	0	FR3	3	R1154D
2515.689	1.6	2561341	WORD	n/a	wordpools/wordpool.txt	FAN	3	0	16	[0, 0, 0]	n/a	0	1	0	n/a	n/a	0.0	0	0	0	FR3	3	R1154D
2517.305	0.901	2562957	WORD_OFF	n/a	n/a	FAN	3	0	16	[0, 0, 0]	n/a	0	1	0	n/a	n/a	0.0	0	0	0	FR3	3	R1154D
2518.206	1.6	2563858	WORD	n/a	wordpools/wordpool.txt	DART	4	1	16	[0, 0, 0]	n/a	0	1	0	n/a	n/a	0.0	0	0	0	FR3	3	R1154D
2519.824	0.883	2565476	WORD_OFF	n/a	n/a	DART	4	0	16	[0, 0, 0]	n/a	0	1	0	n/a	n/a	0.0	0	0	0	FR3	3	R1154D
2520.707	1.6	2566359	WORD	n/a	wordpools/wordpool.txt	GLASS	5	0	16	[0, 0, 0]	n/a	0	1	0	n/a	n/a	0.0	0	0	0	FR3	3	R1154D
2522.28	0.0	2567932	STIM_ON	n/a	n/a	GLASS	5	0	16	[0, 0, 0]	n/a	1	1	500	LTCG29	LTCG30	1000.0	200	100	300	FR3	3	R1154D
2522.324	0.456	2567976	WORD_OFF	n/a	n/a	GLASS	5	0	16	[0, 0, 0]	n/a	1	1	500	LTCG29	LTCG30	1000.0	200	100	300	FR3	3	R1154D
2522.78	0.41	2568432	STIM_OFF	n/a	n/a	n/a	5	0	16	[0, 0, 0]	n/a	0	1	500	LTCG29	LTCG30	1000.0	200	100	300	FR3	3	R1154D
2523.19	1.6	2568842	WORD	n/a	wordpools/wordpool.txt	TOE	6	0	16	[0, 0, 0]	n/a	0	1	0	n/a	n/a	0.0	0	0	0	FR3	3	R1154D
2524.808	0.933	2570460	WORD_OFF	n/a	n/a	TOE	6	0	16	[0, 0, 0]	n/a	0	1	0	n/a	n/a	0.0	0	0	0	FR3	3	R1154D
2525.741	1.6	2571393	WORD	n/a	wordpools/wordpool.txt	WOOD	7	0	16	[0, 0, 0]	n/a	0	1	0	n/a	n/a	0.0	0	0	0	FR3	3	R1154D
2527.358	0.849	2573010	WORD_OFF	n/a	n/a	WOOD	7	0	16	[0, 0, 0]	n/a	0	1	0	n/a	n/a	0.0	0	0	0	FR3	3	R1154D
2528.207	1.6	2573859	WORD	n/a	wordpools/wordpool.txt	BOARD	8	1	16	[0, 0, 0]	n/a	0	1	0	n/a	n/a	0.0	0	0	0	FR3	3	R1154D
2529.8	0.0	2575452	STIM_ON	n/a	n/a	BOARD	8	1	16	[0, 0, 0]	n/a	1	1	500	LTCG29	LTCG30	1000.0	200	100	300	FR3	3	R1154D
2529.825	0.475	2575477	WORD_OFF	n/a	n/a	BOARD	8	0	16	[0, 0, 0]	n/a	1	1	500	LTCG29	LTCG30	1000.0	200	100	300	FR3	3	R1154D
2530.3	0.442	2575952	STIM_OFF	n/a	n/a	n/a	8	0	16	[0, 0, 0]	n/a	0	1	500	LTCG29	LTCG30	1000.0	200	100	300	FR3	3	R1154D
2530.742	1.6	2576394	WORD	n/a	wordpools/wordpool.txt	LOCK	9	0	16	[0, 0, 0]	n/a	0	1	0	n/a	n/a	0.0	0	0	0	FR3	3	R1154D
2532.324	0.0	2577976	STIM_ON	n/a	n/a	LOCK	9	0	16	[0, 0, 0]	n/a	1	1	500	LTCG29	LTCG30	1000.0	200	100	300	FR3	3	R1154D
2532.359	0.465	2578011	WORD_OFF	n/a	n/a	LOCK	9	0	16	[0, 0, 0]	n/a	1	1	500	LTCG29	LTCG30	1000.0	200	100	300	FR3	3	R1154D
2532.824	0.302	2578476	STIM_OFF	n/a	n/a	n/a	9	0	16	[0, 0, 0]	n/a	0	1	500	LTCG29	LTCG30	1000.0	200	100	300	FR3	3	R1154D
2533.126	1.6	2578778	WORD	n/a	wordpools/wordpool.txt	PIT	10	0	16	[0, 0, 0]	n/a	0	1	0	n/a	n/a	0.0	0	0	0	FR3	3	R1154D
2534.743	0.767	2580394	WORD_OFF	n/a	n/a	PIT	10	0	16	[0, 0, 0]	n/a	0	1	0	n/a	n/a	0.0	0	0	0	FR3	3	R1154D
2535.51	1.6	2581161	WORD	n/a	wordpools/wordpool.txt	FLAME	11	0	16	[0, 0, 0]	n/a	0	1	0	n/a	n/a	0.0	0	0	0	FR3	3	R1154D
2537.097	0.0	2582748	STIM_ON	n/a	n/a	FLAME	11	0	16	[0, 0, 0]	n/a	1	1	500	LTCG29	LTCG30	1000.0	200	100	300	FR3	3	R1154D
2537.127	0.47	2582778	WORD_OFF	n/a	n/a	FLAME	11	0	16	[0, 0, 0]	n/a	1	1	500	LTCG29	LTCG30	1000.0	200	100	300	FR3	3	R1154D
2537.597	0.497	2583248	STIM_OFF	n/a	n/a	n/a	11	0	16	[0, 0, 0]	n/a	0	1	500	LTCG29	LTCG30	1000.0	200	100	300	FR3	3	R1154D
2538.094	1.6	2583745	WORD	n/a	wordpools/wordpool.txt	CLOTH	12	1	16	[0, 0, 0]	n/a	0	1	0	n/a	n/a	0.0	0	0	0	FR3	3	R1154D
2539.711	0.0	2585362	DISTRACT_START	n/a	n/a	n/a	-999	0	16	[0, 0, 0]	n/a	0	1	0	n/a	n/a	0.0	0	0	0	FR3	3	R1154D
2539.711	0.0	2585362	WORD_OFF	n/a	n/a	CLOTH	12	0	16	[0, 0, 0]	n/a	0	1	0	n/a	n/a	0.0	0	0	0	FR3	3	R1154D
2539.711	0.016	2585362	START	n/a	n/a	n/a	-999	0	16	[-999, -999, -999]	n/a	0	1	0	n/a	n/a	0.0	0	0	0	FR3	3	R1154D
2539.727	3.517	2585378	PROB	3.489	n/a	n/a	-999	0	16	[5, 7, 7]	19	0	1	0	n/a	n/a	0.0	0	0	0	FR3	3	R1154D
2543.244	1.834	2588895	PROB	1.804	n/a	n/a	-999	0	16	[4, 8, 6]	18	0	1	0	n/a	n/a	0.0	0	0	0	FR3	3	R1154D
2545.078	1.517	2590729	PROB	1.482	n/a	n/a	-999	0	16	[9, 2, 8]	19	0	1	0	n/a	n/a	0.0	0	0	0	FR3	3	R1154D
2546.595	2.317	2592246	PROB	2.286	n/a	n/a	-999	0	16	[4, 7, 8]	19	0	1	0	n/a	n/a	0.0	0	0	0	FR3	3	R1154D
2548.912	2.034	2594563	PROB	2.001	n/a	n/a	-999	0	16	[9, 9, 9]	27	0	1	0	n/a	n/a	0.0	0	0	0	FR3	3	R1154D
2550.946	1.684	2596597	PROB	1.656	n/a	n/a	-999	0	16	[5, 1, 8]	14	0	1	0	n/a	n/a	0.0	0	0	0	FR3	3	R1154D
2552.63	5.65	2598281	PROB	5.619	n/a	n/a	-999	0	16	[6, 7, 9]	22	0	1	0	n/a	n/a	0.0	0	0	0	FR3	3	R1154D
2558.28	4.12	2603930	PROB	4.12	n/a	n/a	-999	0	16	[9, 8, 9]	26	0	1	0	n/a	n/a	0.0	0	0	0	FR3	3	R1154D
2562.4	0.015	2608050	STOP	n/a	n/a	n/a	-999	0	16	[-999, -999, -999]	n/a	0	1	0	n/a	n/a	0.0	0	0	0	FR3	3	R1154D
