onset	duration	sample	trial_type	response_time	stim_file	item_name	serialpos	recalled	list	test	answer	stimulation	stim_list	stim_duration	anode_label	cathode_label	amplitude	pulse_freq	n_pulses	pulse_width	experiment	session	subject
0.0	0.0	68437	INSTRUCT_START	n/a	n/a	n/a	-999	0	-999	[0, 0, 0]	n/a	0	0	0	n/a	n/a	0.0	0	0	0	FR3	2	R1195E
0.0	10.97	68437	INSTRUCT_END	n/a	n/a	n/a	-999	0	-999	[0, 0, 0]	n/a	0	0	0	n/a	n/a	0.0	0	0	0	FR3	2	R1195E
10.97	0.0	79406	SESS_START	n/a	n/a	n/a	-999	0	-999	[0, 0, 0]	n/a	0	0	0	n/a	n/a	0.0	0	0	0	FR3	2	R1195E
10.97	13.502	79406	MIC_TEST	n/a	n/a	n/a	-999	0	-999	[0, 0, 0]	n/a	0	0	0	n/a	n/a	0.0	0	0	0	FR3	2	R1195E
24.472	3.133	92908	PRACTICE_TRIAL	n/a	n/a	n/a	-999	0	-1	[0, 0, 0]	n/a	0	0	0	n/a	n/a	0.0	0	0	0	FR3	2	R1195E
27.605	10.0	96041	COUNTDOWN_START	n/a	n/a	n/a	-999	0	-1	[0, 0, 0]	n/a	0	0	0	n/a	n/a	0.0	0	0	0	FR3	2	R1195E
38.033	0.007	106468	COUNTDOWN_END	n/a	n/a	n/a	-999	0	-1	[0, 0, 0]	n/a	0	0	0	n/a	n/a	0.0	0	0	0	FR3	2	R1195E
38.04	1.6	106475	PRACTICE_ORIENT	n/a	n/a	n/a	-999	0	-1	[0, 0, 0]	n/a	0	0	0	n/a	n/a	0.0	0	0	0	FR3	2	R1195E
39.657	1.934	108092	PRACTICE_ORIENT_OFF	n/a	n/a	n/a	-999	0	-1	[0, 0, 0]	n/a	0	0	0	n/a	n/a	0.0	0	0	0	FR3	2	R1195E
41.591	1.6	110026	PRACTICE_WORD	n/a	n/a	WATCH	1	0	-1	[0, 0, 0]	n/a	0	0	0	n/a	n/a	0.0	0	0	0	FR3	2	R1195E
43.208	0.967	111643	PRACTICE_WORD_OFF	n/a	n/a	WATCH	-999	0	-1	[0, 0, 0]	n/a	0	0	0	n/a	n/a	0.0	0	0	0	FR3	2	R1195E
44.175	1.6	112610	PRACTICE_WORD	n/a	n/a	BEAM	2	0	-1	[0, 0, 0]	n/a	0	0	0	n/a	n/a	0.0	0	0	0	FR3	2	R1195E
45.791	0.984	114226	PRACTICE_WORD_OFF	n/a	n/a	BEAM	-999	0	-1	[0, 0, 0]	n/a	0	0	0	n/a	n/a	0.0	0	0	0	FR3	2	R1195E
46.775	1.6	115210	PRACTICE_WORD	n/a	n/a	WAGON	3	0	-1	[0, 0, 0]	n/a	0	0	0	n/a	n/a	0.0	0	0	0	FR3	2	R1195E
48.392	1.0	116827	PRACTICE_WORD_OFF	n/a	n/a	WAGON	-999	0	-1	[0, 0, 0]	n/a	0	0	0	n/a	n/a	0.0	0	0	0	FR3	2	R1195E
49.392	1.6	117827	PRACTICE_WORD	n/a	n/a	IRON	4	0	-1	[0, 0, 0]	n/a	0	0	0	n/a	n/a	0.0	0	0	0	FR3	2	R1195E
51.009	0.983	119444	PRACTICE_WORD_OFF	n/a	n/a	IRON	-999	0	-1	[0, 0, 0]	n/a	0	0	0	n/a	n/a	0.0	0	0	0	FR3	2	R1195E
51.992	1.6	120427	PRACTICE_WORD	n/a	n/a	ATTIC	5	0	-1	[0, 0, 0]	n/a	0	0	0	n/a	n/a	0.0	0	0	0	FR3	2	R1195E
53.61	0.8	122045	PRACTICE_WORD_OFF	n/a	n/a	ATTIC	-999	0	-1	[0, 0, 0]	n/a	0	0	0	n/a	n/a	0.0	0	0	0	FR3	2	R1195E
54.41	1.6	122845	PRACTICE_WORD	n/a	n/a	TONGUE	6	0	-1	[0, 0, 0]	n/a	0	0	0	n/a	n/a	0.0	0	0	0	FR3	2	R1195E
56.027	0.833	124461	PRACTICE_WORD_OFF	n/a	n/a	TONGUE	-999	0	-1	[0, 0, 0]	n/a	0	0	0	n/a	n/a	0.0	0	0	0	FR3	2	R1195E
56.86	1.6	125294	PRACTICE_WORD	n/a	n/a	COTTON	7	0	-1	[0, 0, 0]	n/a	0	0	0	n/a	n/a	0.0	0	0	0	FR3	2	R1195E
58.477	0.934	126911	PRACTICE_WORD_OFF	n/a	n/a	COTTON	-999	0	-1	[0, 0, 0]	n/a	0	0	0	n/a	n/a	0.0	0	0	0	FR3	2	R1195E
59.411	1.6	127845	PRACTICE_WORD	n/a	n/a	CHEST	8	0	-1	[0, 0, 0]	n/a	0	0	0	n/a	n/a	0.0	0	0	0	FR3	2	R1195E
61.027	0.901	129461	PRACTICE_WORD_OFF	n/a	n/a	CHEST	-999	0	-1	[0, 0, 0]	n/a	0	0	0	n/a	n/a	0.0	0	0	0	FR3	2	R1195E
61.928	1.6	130362	PRACTICE_WORD	n/a	n/a	RHINO	9	0	-1	[0, 0, 0]	n/a	0	0	0	n/a	n/a	0.0	0	0	0	FR3	2	R1195E
63.545	0.966	131979	PRACTICE_WORD_OFF	n/a	n/a	RHINO	-999	0	-1	[0, 0, 0]	n/a	0	0	0	n/a	n/a	0.0	0	0	0	FR3	2	R1195E
64.511	1.6	132945	PRACTICE_WORD	n/a	n/a	FLOOD	10	0	-1	[0, 0, 0]	n/a	0	0	0	n/a	n/a	0.0	0	0	0	FR3	2	R1195E
66.128	0.8	134562	PRACTICE_WORD_OFF	n/a	n/a	FLOOD	-999	0	-1	[0, 0, 0]	n/a	0	0	0	n/a	n/a	0.0	0	0	0	FR3	2	R1195E
66.928	1.6	135362	PRACTICE_WORD	n/a	n/a	RING	11	0	-1	[0, 0, 0]	n/a	0	0	0	n/a	n/a	0.0	0	0	0	FR3	2	R1195E
68.545	0.917	136979	PRACTICE_WORD_OFF	n/a	n/a	RING	-999	0	-1	[0, 0, 0]	n/a	0	0	0	n/a	n/a	0.0	0	0	0	FR3	2	R1195E
69.462	1.6	137896	PRACTICE_WORD	n/a	n/a	CAMEL	12	0	-1	[0, 0, 0]	n/a	0	0	0	n/a	n/a	0.0	0	0	0	FR3	2	R1195E
71.079	0.0	139513	PRACTICE_WORD_OFF	n/a	n/a	CAMEL	-999	0	-1	[0, 0, 0]	n/a	0	0	0	n/a	n/a	0.0	0	0	0	FR3	2	R1195E
71.079	0.001	139513	DISTRACT_START	n/a	n/a	n/a	-999	0	-1	[0, 0, 0]	n/a	0	0	0	n/a	n/a	0.0	0	0	0	FR3	2	R1195E
71.08	0.016	139514	START	n/a	n/a	n/a	-999	0	-1	[-999, -999, -999]	n/a	0	0	0	n/a	n/a	0.0	0	0	0	FR3	2	R1195E
71.096	4.351	139530	PROB	4.326	n/a	n/a	-999	0	-1	[8, 6, 6]	20	0	0	0	n/a	n/a	0.0	0	0	0	FR3	2	R1195E
75.447	2.616	143881	PROB	2.59	n/a	n/a	-999	0	-1	[1, 1, 6]	8	0	0	0	n/a	n/a	0.0	0	0	0	FR3	2	R1195E
78.063	2.268	146497	PROB	2.231	n/a	n/a	-999	0	-1	[8, 1, 2]	11	0	0	0	n/a	n/a	0.0	0	0	0	FR3	2	R1195E
80.331	2.717	148765	PROB	2.683	n/a	n/a	-999	0	-1	[1, 5, 3]	9	0	0	0	n/a	n/a	0.0	0	0	0	FR3	2	R1195E
83.048	4.484	151481	PROB	4.449	n/a	n/a	-999	0	-1	[2, 9, 5]	16	0	0	0	n/a	n/a	0.0	0	0	0	FR3	2	R1195E
87.532	5.703	155965	PROB	5.703	n/a	n/a	-999	0	-1	[9, 8, 5]	22	0	0	0	n/a	n/a	0.0	0	0	0	FR3	2	R1195E
93.235	0.015	161668	STOP	n/a	n/a	n/a	-999	0	-1	[-999, -999, -999]	n/a	0	0	0	n/a	n/a	0.0	0	0	0	FR3	2	R1195E
93.25	0.6	161683	DISTRACT_END	n/a	n/a	n/a	-999	0	-1	[0, 0, 0]	n/a	0	0	0	n/a	n/a	0.0	0	0	0	FR3	2	R1195E
93.85	0.5	162283	RETRIEVAL_ORIENT	n/a	n/a	n/a	-999	0	-1	[0, 0, 0]	n/a	0	0	0	n/a	n/a	0.0	0	0	0	FR3	2	R1195E
94.373	30.004	162806	PRACTICE_REC_START	n/a	n/a	n/a	-999	0	-1	[0, 0, 0]	n/a	0	0	0	n/a	n/a	0.0	0	0	0	FR3	2	R1195E
124.377	8.096	192809	PRACTICE_REC_END	n/a	n/a	n/a	-999	0	-1	[0, 0, 0]	n/a	0	0	0	n/a	n/a	0.0	0	0	0	FR3	2	R1195E
132.473	0.5	200905	TRIAL	n/a	n/a	n/a	-999	0	1	[0, 0, 0]	n/a	0	0	0	n/a	n/a	0.0	0	0	0	FR3	2	R1195E
132.973	10.0	201405	COUNTDOWN_START	n/a	n/a	n/a	-999	0	1	[0, 0, 0]	n/a	0	0	0	n/a	n/a	0.0	0	0	0	FR3	2	R1195E
143.401	0.007	211832	COUNTDOWN_END	n/a	n/a	n/a	-999	0	1	[0, 0, 0]	n/a	0	0	0	n/a	n/a	0.0	0	0	0	FR3	2	R1195E
143.408	1.6	211839	ORIENT	n/a	n/a	n/a	-999	0	1	[0, 0, 0]	n/a	0	0	0	n/a	n/a	0.0	0	0	0	FR3	2	R1195E
145.025	2.134	213456	ORIENT_OFF	n/a	n/a	n/a	-999	0	1	[0, 0, 0]	n/a	0	0	0	n/a	n/a	0.0	0	0	0	FR3	2	R1195E
147.159	1.6	215590	WORD	n/a	wordpools/wordpool.txt	BANK	1	1	1	[0, 0, 0]	n/a	0	0	0	n/a	n/a	0.0	0	0	0	FR3	2	R1195E
148.776	0.767	217207	WORD_OFF	n/a	n/a	BANK	1	0	1	[0, 0, 0]	n/a	0	0	0	n/a	n/a	0.0	0	0	0	FR3	2	R1195E
149.543	1.6	217974	WORD	n/a	wordpools/wordpool.txt	FUDGE	2	1	1	[0, 0, 0]	n/a	0	0	0	n/a	n/a	0.0	0	0	0	FR3	2	R1195E
151.16	0.967	219591	WORD_OFF	n/a	n/a	FUDGE	2	0	1	[0, 0, 0]	n/a	0	0	0	n/a	n/a	0.0	0	0	0	FR3	2	R1195E
152.127	1.6	220558	WORD	n/a	wordpools/wordpool.txt	GOLD	3	1	1	[0, 0, 0]	n/a	0	0	0	n/a	n/a	0.0	0	0	0	FR3	2	R1195E
153.744	0.816	222175	WORD_OFF	n/a	n/a	GOLD	3	0	1	[0, 0, 0]	n/a	0	0	0	n/a	n/a	0.0	0	0	0	FR3	2	R1195E
154.56	1.6	222991	WORD	n/a	wordpools/wordpool.txt	BOMB	4	1	1	[0, 0, 0]	n/a	0	0	0	n/a	n/a	0.0	0	0	0	FR3	2	R1195E
156.177	0.784	224608	WORD_OFF	n/a	n/a	BOMB	4	0	1	[0, 0, 0]	n/a	0	0	0	n/a	n/a	0.0	0	0	0	FR3	2	R1195E
156.961	1.6	225392	WORD	n/a	wordpools/wordpool.txt	BLOOM	5	0	1	[0, 0, 0]	n/a	0	0	0	n/a	n/a	0.0	0	0	0	FR3	2	R1195E
158.578	0.883	227009	WORD_OFF	n/a	n/a	BLOOM	5	0	1	[0, 0, 0]	n/a	0	0	0	n/a	n/a	0.0	0	0	0	FR3	2	R1195E
159.461	1.6	227892	WORD	n/a	wordpools/wordpool.txt	CASH	6	1	1	[0, 0, 0]	n/a	0	0	0	n/a	n/a	0.0	0	0	0	FR3	2	R1195E
161.078	0.85	229509	WORD_OFF	n/a	n/a	CASH	6	0	1	[0, 0, 0]	n/a	0	0	0	n/a	n/a	0.0	0	0	0	FR3	2	R1195E
161.928	1.6	230358	WORD	n/a	wordpools/wordpool.txt	GRAPE	7	0	1	[0, 0, 0]	n/a	0	0	0	n/a	n/a	0.0	0	0	0	FR3	2	R1195E
163.545	0.95	231975	WORD_OFF	n/a	n/a	GRAPE	7	0	1	[0, 0, 0]	n/a	0	0	0	n/a	n/a	0.0	0	0	0	FR3	2	R1195E
164.495	1.6	232925	WORD	n/a	wordpools/wordpool.txt	KEY	8	1	1	[0, 0, 0]	n/a	0	0	0	n/a	n/a	0.0	0	0	0	FR3	2	R1195E
166.112	0.817	234542	WORD_OFF	n/a	n/a	KEY	8	0	1	[0, 0, 0]	n/a	0	0	0	n/a	n/a	0.0	0	0	0	FR3	2	R1195E
166.929	1.6	235359	WORD	n/a	wordpools/wordpool.txt	PLANT	9	0	1	[0, 0, 0]	n/a	0	0	0	n/a	n/a	0.0	0	0	0	FR3	2	R1195E
168.546	0.934	236976	WORD_OFF	n/a	n/a	PLANT	9	0	1	[0, 0, 0]	n/a	0	0	0	n/a	n/a	0.0	0	0	0	FR3	2	R1195E
169.48	1.6	237910	WORD	n/a	wordpools/wordpool.txt	BOOK	10	1	1	[0, 0, 0]	n/a	0	0	0	n/a	n/a	0.0	0	0	0	FR3	2	R1195E
171.097	0.833	239527	WORD_OFF	n/a	n/a	BOOK	10	0	1	[0, 0, 0]	n/a	0	0	0	n/a	n/a	0.0	0	0	0	FR3	2	R1195E
171.93	1.6	240360	WORD	n/a	wordpools/wordpool.txt	MAP	11	0	1	[0, 0, 0]	n/a	0	0	0	n/a	n/a	0.0	0	0	0	FR3	2	R1195E
173.547	0.933	241977	WORD_OFF	n/a	n/a	MAP	11	0	1	[0, 0, 0]	n/a	0	0	0	n/a	n/a	0.0	0	0	0	FR3	2	R1195E
174.48	1.6	242910	WORD	n/a	wordpools/wordpool.txt	LEAF	12	0	1	[0, 0, 0]	n/a	0	0	0	n/a	n/a	0.0	0	0	0	FR3	2	R1195E
176.097	0.0	244527	WORD_OFF	n/a	n/a	LEAF	12	0	1	[0, 0, 0]	n/a	0	0	0	n/a	n/a	0.0	0	0	0	FR3	2	R1195E
176.097	0.001	244527	DISTRACT_START	n/a	n/a	n/a	-999	0	1	[0, 0, 0]	n/a	0	0	0	n/a	n/a	0.0	0	0	0	FR3	2	R1195E
176.098	0.016	244528	START	n/a	n/a	n/a	-999	0	1	[-999, -999, -999]	n/a	0	0	0	n/a	n/a	0.0	0	0	0	FR3	2	R1195E
176.114	2.934	244544	PROB	2.899	n/a	n/a	-999	0	1	[7, 1, 3]	11	0	0	0	n/a	n/a	0.0	0	0	0	FR3	2	R1195E
179.048	5.518	247478	PROB	5.483	n/a	n/a	-999	0	1	[7, 6, 9]	22	0	0	0	n/a	n/a	0.0	0	0	0	FR3	2	R1195E
184.566	4.15	252996	PROB	4.119	n/a	n/a	-999	0	1	[6, 1, 7]	14	0	0	0	n/a	n/a	0.0	0	0	0	FR3	2	R1195E
188.716	3.168	257145	PROB	3.135	n/a	n/a	-999	0	1	[3, 3, 2]	8	0	0	0	n/a	n/a	0.0	0	0	0	FR3	2	R1195E
191.884	2.65	260313	PROB	2.624	n/a	n/a	-999	0	1	[1, 2, 8]	11	0	0	0	n/a	n/a	0.0	0	0	0	FR3	2	R1195E
194.534	3.742	262963	PROB	3.742	n/a	n/a	-999	0	1	[4, 4, 4]	12	0	0	0	n/a	n/a	0.0	0	0	0	FR3	2	R1195E
198.276	0.009	266705	STOP	n/a	n/a	n/a	-999	0	1	[-999, -999, -999]	n/a	0	0	0	n/a	n/a	0.0	0	0	0	FR3	2	R1195E
198.285	0.666	266714	DISTRACT_END	n/a	n/a	n/a	-999	0	1	[0, 0, 0]	n/a	0	0	0	n/a	n/a	0.0	0	0	0	FR3	2	R1195E
198.951	0.5	267380	RETRIEVAL_ORIENT	n/a	n/a	n/a	-999	0	1	[0, 0, 0]	n/a	0	0	0	n/a	n/a	0.0	0	0	0	FR3	2	R1195E
199.471	1.325	267900	REC_START	n/a	n/a	n/a	-999	0	1	[0, 0, 0]	n/a	0	0	0	n/a	n/a	0.0	0	0	0	FR3	2	R1195E
200.796	0.447	269225	REC_WORD_VV	1.325	n/a	<>	-999	0	1	[0, 0, 0]	n/a	0	0	0	n/a	n/a	0.0	0	0	0	FR3	2	R1195E
201.243	2.555	269672	REC_WORD	1.772	n/a	FUDGE	2	1	1	[0, 0, 0]	n/a	0	0	0	n/a	n/a	0.0	0	0	0	FR3	2	R1195E
203.798	4.241	272227	REC_WORD	4.327	n/a	BANK	1	1	1	[0, 0, 0]	n/a	0	0	0	n/a	n/a	0.0	0	0	0	FR3	2	R1195E
208.039	0.775	276468	REC_WORD_VV	8.568	n/a	<>	-999	0	1	[0, 0, 0]	n/a	0	0	0	n/a	n/a	0.0	0	0	0	FR3	2	R1195E
208.814	4.865	277243	REC_WORD	9.343	n/a	KEY	8	1	1	[0, 0, 0]	n/a	0	0	0	n/a	n/a	0.0	0	0	0	FR3	2	R1195E
213.679	4.417	282108	REC_WORD	14.208	n/a	CASH	6	1	1	[0, 0, 0]	n/a	0	0	0	n/a	n/a	0.0	0	0	0	FR3	2	R1195E
218.096	1.905	286524	REC_WORD	18.625	n/a	GOLD	3	1	1	[0, 0, 0]	n/a	0	0	0	n/a	n/a	0.0	0	0	0	FR3	2	R1195E
220.001	2.863	288429	REC_WORD	20.53	n/a	BOMB	4	1	1	[0, 0, 0]	n/a	0	0	0	n/a	n/a	0.0	0	0	0	FR3	2	R1195E
222.864	6.614	291292	REC_WORD	23.393	n/a	BOOK	10	1	1	[0, 0, 0]	n/a	0	0	0	n/a	n/a	0.0	0	0	0	FR3	2	R1195E
229.478	4.846	297906	REC_END	n/a	n/a	n/a	-999	0	1	[0, 0, 0]	n/a	0	0	0	n/a	n/a	0.0	0	0	0	FR3	2	R1195E
234.324	0.5	302752	TRIAL	n/a	n/a	n/a	-999	0	2	[0, 0, 0]	n/a	0	0	0	n/a	n/a	0.0	0	0	0	FR3	2	R1195E
234.824	10.0	303252	COUNTDOWN_START	n/a	n/a	n/a	-999	0	2	[0, 0, 0]	n/a	0	0	0	n/a	n/a	0.0	0	0	0	FR3	2	R1195E
245.252	0.007	313679	COUNTDOWN_END	n/a	n/a	n/a	-999	0	2	[0, 0, 0]	n/a	0	0	0	n/a	n/a	0.0	0	0	0	FR3	2	R1195E
245.259	1.6	313686	ORIENT	n/a	n/a	n/a	-999	0	2	[0, 0, 0]	n/a	0	0	0	n/a	n/a	0.0	0	0	0	FR3	2	R1195E
246.876	2.217	315303	ORIENT_OFF	n/a	n/a	n/a	-999	0	2	[0, 0, 0]	n/a	0	0	0	n/a	n/a	0.0	0	0	0	FR3	2	R1195E
249.093	1.6	317520	WORD	n/a	wordpools/wordpool.txt	PIE	1	1	2	[0, 0, 0]	n/a	0	0	0	n/a	n/a	0.0	0	0	0	FR3	2	R1195E
250.71	0.784	319137	WORD_OFF	n/a	n/a	PIE	1	0	2	[0, 0, 0]	n/a	0	0	0	n/a	n/a	0.0	0	0	0	FR3	2	R1195E
251.494	1.6	319921	WORD	n/a	wordpools/wordpool.txt	JET	2	1	2	[0, 0, 0]	n/a	0	0	0	n/a	n/a	0.0	0	0	0	FR3	2	R1195E
253.11	1.001	321537	WORD_OFF	n/a	n/a	JET	2	0	2	[0, 0, 0]	n/a	0	0	0	n/a	n/a	0.0	0	0	0	FR3	2	R1195E
254.111	1.6	322538	WORD	n/a	wordpools/wordpool.txt	STEAM	3	1	2	[0, 0, 0]	n/a	0	0	0	n/a	n/a	0.0	0	0	0	FR3	2	R1195E
255.728	0.833	324155	WORD_OFF	n/a	n/a	STEAM	3	0	2	[0, 0, 0]	n/a	0	0	0	n/a	n/a	0.0	0	0	0	FR3	2	R1195E
256.561	1.6	324988	WORD	n/a	wordpools/wordpool.txt	CLOUD	4	1	2	[0, 0, 0]	n/a	0	0	0	n/a	n/a	0.0	0	0	0	FR3	2	R1195E
258.178	1.001	326605	WORD_OFF	n/a	n/a	CLOUD	4	0	2	[0, 0, 0]	n/a	0	0	0	n/a	n/a	0.0	0	0	0	FR3	2	R1195E
259.179	1.6	327606	WORD	n/a	wordpools/wordpool.txt	PLANE	5	1	2	[0, 0, 0]	n/a	0	0	0	n/a	n/a	0.0	0	0	0	FR3	2	R1195E
260.796	0.766	329223	WORD_OFF	n/a	n/a	PLANE	5	0	2	[0, 0, 0]	n/a	0	0	0	n/a	n/a	0.0	0	0	0	FR3	2	R1195E
261.562	1.6	329989	WORD	n/a	wordpools/wordpool.txt	CONE	6	0	2	[0, 0, 0]	n/a	0	0	0	n/a	n/a	0.0	0	0	0	FR3	2	R1195E
263.179	0.934	331606	WORD_OFF	n/a	n/a	CONE	6	0	2	[0, 0, 0]	n/a	0	0	0	n/a	n/a	0.0	0	0	0	FR3	2	R1195E
264.113	1.6	332540	WORD	n/a	wordpools/wordpool.txt	TANK	7	0	2	[0, 0, 0]	n/a	0	0	0	n/a	n/a	0.0	0	0	0	FR3	2	R1195E
265.73	0.9	334157	WORD_OFF	n/a	n/a	TANK	7	0	2	[0, 0, 0]	n/a	0	0	0	n/a	n/a	0.0	0	0	0	FR3	2	R1195E
266.63	1.6	335057	WORD	n/a	wordpools/wordpool.txt	BLUSH	8	0	2	[0, 0, 0]	n/a	0	0	0	n/a	n/a	0.0	0	0	0	FR3	2	R1195E
268.247	0.983	336673	WORD_OFF	n/a	n/a	BLUSH	8	0	2	[0, 0, 0]	n/a	0	0	0	n/a	n/a	0.0	0	0	0	FR3	2	R1195E
269.23	1.6	337656	WORD	n/a	wordpools/wordpool.txt	LAND	9	0	2	[0, 0, 0]	n/a	0	0	0	n/a	n/a	0.0	0	0	0	FR3	2	R1195E
270.847	0.817	339273	WORD_OFF	n/a	n/a	LAND	9	0	2	[0, 0, 0]	n/a	0	0	0	n/a	n/a	0.0	0	0	0	FR3	2	R1195E
271.664	1.6	340090	WORD	n/a	wordpools/wordpool.txt	HOSE	10	0	2	[0, 0, 0]	n/a	0	0	0	n/a	n/a	0.0	0	0	0	FR3	2	R1195E
273.281	0.767	341707	WORD_OFF	n/a	n/a	HOSE	10	0	2	[0, 0, 0]	n/a	0	0	0	n/a	n/a	0.0	0	0	0	FR3	2	R1195E
274.048	1.6	342474	WORD	n/a	wordpools/wordpool.txt	PIN	11	0	2	[0, 0, 0]	n/a	0	0	0	n/a	n/a	0.0	0	0	0	FR3	2	R1195E
275.665	0.967	344091	WORD_OFF	n/a	n/a	PIN	11	0	2	[0, 0, 0]	n/a	0	0	0	n/a	n/a	0.0	0	0	0	FR3	2	R1195E
276.632	1.6	345058	WORD	n/a	wordpools/wordpool.txt	BAND	12	1	2	[0, 0, 0]	n/a	0	0	0	n/a	n/a	0.0	0	0	0	FR3	2	R1195E
278.249	0.0	346675	DISTRACT_START	n/a	n/a	n/a	-999	0	2	[0, 0, 0]	n/a	0	0	0	n/a	n/a	0.0	0	0	0	FR3	2	R1195E
278.249	0.0	346675	WORD_OFF	n/a	n/a	BAND	12	0	2	[0, 0, 0]	n/a	0	0	0	n/a	n/a	0.0	0	0	0	FR3	2	R1195E
278.249	0.016	346675	START	n/a	n/a	n/a	-999	0	2	[-999, -999, -999]	n/a	0	0	0	n/a	n/a	0.0	0	0	0	FR3	2	R1195E
278.265	4.551	346691	PROB	4.524	n/a	n/a	-999	0	2	[9, 7, 5]	21	0	0	0	n/a	n/a	0.0	0	0	0	FR3	2	R1195E
282.816	4.434	351242	PROB	4.396	n/a	n/a	-999	0	2	[4, 3, 8]	15	0	0	0	n/a	n/a	0.0	0	0	0	FR3	2	R1195E
287.25	3.917	355676	PROB	3.89	n/a	n/a	-999	0	2	[6, 3, 1]	10	0	0	0	n/a	n/a	0.0	0	0	0	FR3	2	R1195E
291.167	4.084	359593	PROB	4.061	n/a	n/a	-999	0	2	[3, 3, 5]	11	0	0	0	n/a	n/a	0.0	0	0	0	FR3	2	R1195E
295.251	5.739	363676	PROB	5.739	n/a	n/a	-999	0	2	[5, 3, 8]	16	0	0	0	n/a	n/a	0.0	0	0	0	FR3	2	R1195E
300.99	0.013	369415	STOP	n/a	n/a	n/a	-999	0	2	[-999, -999, -999]	n/a	0	0	0	n/a	n/a	0.0	0	0	0	FR3	2	R1195E
301.003	0.533	369428	DISTRACT_END	n/a	n/a	n/a	-999	0	2	[0, 0, 0]	n/a	0	0	0	n/a	n/a	0.0	0	0	0	FR3	2	R1195E
301.536	0.5	369961	RETRIEVAL_ORIENT	n/a	n/a	n/a	-999	0	2	[0, 0, 0]	n/a	0	0	0	n/a	n/a	0.0	0	0	0	FR3	2	R1195E
302.053	0.87	370478	REC_START	n/a	n/a	n/a	-999	0	2	[0, 0, 0]	n/a	0	0	0	n/a	n/a	0.0	0	0	0	FR3	2	R1195E
302.923	0.666	371348	REC_WORD_VV	0.87	n/a	<>	-999	0	2	[0, 0, 0]	n/a	0	0	0	n/a	n/a	0.0	0	0	0	FR3	2	R1195E
303.589	1.806	372014	REC_WORD	1.536	n/a	PIE	1	1	2	[0, 0, 0]	n/a	0	0	0	n/a	n/a	0.0	0	0	0	FR3	2	R1195E
305.395	2.82	373820	REC_WORD	3.342	n/a	HEN	-999	0	2	[0, 0, 0]	n/a	0	0	0	n/a	n/a	0.0	0	0	0	FR3	2	R1195E
308.215	2.192	376640	REC_WORD	6.162	n/a	JET	2	1	2	[0, 0, 0]	n/a	0	0	0	n/a	n/a	0.0	0	0	0	FR3	2	R1195E
310.407	2.586	378832	REC_WORD	8.354	n/a	PLANE	5	1	2	[0, 0, 0]	n/a	0	0	0	n/a	n/a	0.0	0	0	0	FR3	2	R1195E
312.993	2.598	381418	REC_WORD	10.94	n/a	CLOUD	4	1	2	[0, 0, 0]	n/a	0	0	0	n/a	n/a	0.0	0	0	0	FR3	2	R1195E
315.591	4.115	384016	REC_WORD	13.538	n/a	BAND	12	1	2	[0, 0, 0]	n/a	0	0	0	n/a	n/a	0.0	0	0	0	FR3	2	R1195E
319.706	8.38	388131	REC_WORD	17.653	n/a	STEAM	3	1	2	[0, 0, 0]	n/a	0	0	0	n/a	n/a	0.0	0	0	0	FR3	2	R1195E
328.086	3.978	396510	REC_WORD_VV	26.033	n/a	<>	-999	0	2	[0, 0, 0]	n/a	0	0	0	n/a	n/a	0.0	0	0	0	FR3	2	R1195E
332.064	4.595	400488	REC_END	n/a	n/a	n/a	-999	0	2	[0, 0, 0]	n/a	0	0	0	n/a	n/a	0.0	0	0	0	FR3	2	R1195E
336.659	0.5	405083	TRIAL	n/a	n/a	n/a	-999	0	3	[0, 0, 0]	n/a	0	0	0	n/a	n/a	0.0	0	0	0	FR3	2	R1195E
337.159	10.0	405583	COUNTDOWN_START	n/a	n/a	n/a	-999	0	3	[0, 0, 0]	n/a	0	0	0	n/a	n/a	0.0	0	0	0	FR3	2	R1195E
347.587	0.007	416010	COUNTDOWN_END	n/a	n/a	n/a	-999	0	3	[0, 0, 0]	n/a	0	0	0	n/a	n/a	0.0	0	0	0	FR3	2	R1195E
347.594	1.6	416017	ORIENT	n/a	n/a	n/a	-999	0	3	[0, 0, 0]	n/a	0	0	0	n/a	n/a	0.0	0	0	0	FR3	2	R1195E
349.211	2.3	417634	ORIENT_OFF	n/a	n/a	n/a	-999	0	3	[0, 0, 0]	n/a	0	0	0	n/a	n/a	0.0	0	0	0	FR3	2	R1195E
351.511	1.6	419934	WORD	n/a	wordpools/wordpool.txt	SHRIMP	1	1	3	[0, 0, 0]	n/a	0	0	0	n/a	n/a	0.0	0	0	0	FR3	2	R1195E
353.128	0.766	421551	WORD_OFF	n/a	n/a	SHRIMP	1	0	3	[0, 0, 0]	n/a	0	0	0	n/a	n/a	0.0	0	0	0	FR3	2	R1195E
353.894	1.6	422317	WORD	n/a	wordpools/wordpool.txt	HEART	2	0	3	[0, 0, 0]	n/a	0	0	0	n/a	n/a	0.0	0	0	0	FR3	2	R1195E
355.512	0.884	423935	WORD_OFF	n/a	n/a	HEART	2	0	3	[0, 0, 0]	n/a	0	0	0	n/a	n/a	0.0	0	0	0	FR3	2	R1195E
356.396	1.6	424819	WORD	n/a	wordpools/wordpool.txt	RAIN	3	0	3	[0, 0, 0]	n/a	0	0	0	n/a	n/a	0.0	0	0	0	FR3	2	R1195E
358.012	0.767	426435	WORD_OFF	n/a	n/a	RAIN	3	0	3	[0, 0, 0]	n/a	0	0	0	n/a	n/a	0.0	0	0	0	FR3	2	R1195E
358.779	1.6	427202	WORD	n/a	wordpools/wordpool.txt	FOOD	4	1	3	[0, 0, 0]	n/a	0	0	0	n/a	n/a	0.0	0	0	0	FR3	2	R1195E
360.396	0.784	428819	WORD_OFF	n/a	n/a	FOOD	4	0	3	[0, 0, 0]	n/a	0	0	0	n/a	n/a	0.0	0	0	0	FR3	2	R1195E
361.18	1.6	429603	WORD	n/a	wordpools/wordpool.txt	ROAD	5	0	3	[0, 0, 0]	n/a	0	0	0	n/a	n/a	0.0	0	0	0	FR3	2	R1195E
362.797	0.883	431220	WORD_OFF	n/a	n/a	ROAD	5	0	3	[0, 0, 0]	n/a	0	0	0	n/a	n/a	0.0	0	0	0	FR3	2	R1195E
363.68	1.6	432103	WORD	n/a	wordpools/wordpool.txt	BALL	6	1	3	[0, 0, 0]	n/a	0	0	0	n/a	n/a	0.0	0	0	0	FR3	2	R1195E
365.297	0.9	433720	WORD_OFF	n/a	n/a	BALL	6	0	3	[0, 0, 0]	n/a	0	0	0	n/a	n/a	0.0	0	0	0	FR3	2	R1195E
366.197	1.6	434620	WORD	n/a	wordpools/wordpool.txt	BOY	7	1	3	[0, 0, 0]	n/a	0	0	0	n/a	n/a	0.0	0	0	0	FR3	2	R1195E
367.814	0.9	436237	WORD_OFF	n/a	n/a	BOY	7	0	3	[0, 0, 0]	n/a	0	0	0	n/a	n/a	0.0	0	0	0	FR3	2	R1195E
368.714	1.6	437137	WORD	n/a	wordpools/wordpool.txt	JAIL	8	1	3	[0, 0, 0]	n/a	0	0	0	n/a	n/a	0.0	0	0	0	FR3	2	R1195E
370.331	0.784	438754	WORD_OFF	n/a	n/a	JAIL	8	0	3	[0, 0, 0]	n/a	0	0	0	n/a	n/a	0.0	0	0	0	FR3	2	R1195E
371.115	1.6	439538	WORD	n/a	wordpools/wordpool.txt	SCHOOL	9	0	3	[0, 0, 0]	n/a	0	0	0	n/a	n/a	0.0	0	0	0	FR3	2	R1195E
372.732	1.016	441155	WORD_OFF	n/a	n/a	SCHOOL	9	0	3	[0, 0, 0]	n/a	0	0	0	n/a	n/a	0.0	0	0	0	FR3	2	R1195E
373.748	1.6	442171	WORD	n/a	wordpools/wordpool.txt	ZOO	10	1	3	[0, 0, 0]	n/a	0	0	0	n/a	n/a	0.0	0	0	0	FR3	2	R1195E
375.365	0.934	443787	WORD_OFF	n/a	n/a	ZOO	10	0	3	[0, 0, 0]	n/a	0	0	0	n/a	n/a	0.0	0	0	0	FR3	2	R1195E
376.299	1.6	444721	WORD	n/a	wordpools/wordpool.txt	PEA	11	0	3	[0, 0, 0]	n/a	0	0	0	n/a	n/a	0.0	0	0	0	FR3	2	R1195E
377.916	0.867	446338	WORD_OFF	n/a	n/a	PEA	11	0	3	[0, 0, 0]	n/a	0	0	0	n/a	n/a	0.0	0	0	0	FR3	2	R1195E
378.783	1.6	447205	WORD	n/a	wordpools/wordpool.txt	ARM	12	0	3	[0, 0, 0]	n/a	0	0	0	n/a	n/a	0.0	0	0	0	FR3	2	R1195E
380.4	0.0	448822	WORD_OFF	n/a	n/a	ARM	12	0	3	[0, 0, 0]	n/a	0	0	0	n/a	n/a	0.0	0	0	0	FR3	2	R1195E
380.4	0.0	448822	DISTRACT_START	n/a	n/a	n/a	-999	0	3	[0, 0, 0]	n/a	0	0	0	n/a	n/a	0.0	0	0	0	FR3	2	R1195E
380.4	0.016	448822	START	n/a	n/a	n/a	-999	0	3	[-999, -999, -999]	n/a	0	0	0	n/a	n/a	0.0	0	0	0	FR3	2	R1195E
380.416	3.434	448838	PROB	3.411	n/a	n/a	-999	0	3	[2, 8, 4]	14	0	0	0	n/a	n/a	0.0	0	0	0	FR3	2	R1195E
383.85	4.368	452272	PROB	4.33	n/a	n/a	-999	0	3	[5, 4, 4]	13	0	0	0	n/a	n/a	0.0	0	0	0	FR3	2	R1195E
388.218	3.484	456640	PROB	3.457	n/a	n/a	-999	0	3	[7, 7, 7]	21	0	0	0	n/a	n/a	0.0	0	0	0	FR3	2	R1195E
391.702	6.984	460124	PROB	6.959	n/a	n/a	-999	0	3	[9, 5, 6]	20	0	0	0	n/a	n/a	0.0	0	0	0	FR3	2	R1195E
398.686	5.666	467108	PROB	5.666	n/a	n/a	-999	0	3	[6, 1, 5]	12	0	0	0	n/a	n/a	0.0	0	0	0	FR3	2	R1195E
404.352	0.018	472773	STOP	n/a	n/a	n/a	-999	0	3	[-999, -999, -999]	n/a	0	0	0	n/a	n/a	0.0	0	0	0	FR3	2	R1195E
404.37	0.701	472791	DISTRACT_END	n/a	n/a	n/a	-999	0	3	[0, 0, 0]	n/a	0	0	0	n/a	n/a	0.0	0	0	0	FR3	2	R1195E
405.071	0.5	473492	RETRIEVAL_ORIENT	n/a	n/a	n/a	-999	0	3	[0, 0, 0]	n/a	0	0	0	n/a	n/a	0.0	0	0	0	FR3	2	R1195E
405.588	1.383	474009	REC_START	n/a	n/a	n/a	-999	0	3	[0, 0, 0]	n/a	0	0	0	n/a	n/a	0.0	0	0	0	FR3	2	R1195E
406.971	0.765	475392	REC_WORD_VV	1.383	n/a	<>	-999	0	3	[0, 0, 0]	n/a	0	0	0	n/a	n/a	0.0	0	0	0	FR3	2	R1195E
407.736	2.52	476157	REC_WORD	2.148	n/a	SHRIMP	1	1	3	[0, 0, 0]	n/a	0	0	0	n/a	n/a	0.0	0	0	0	FR3	2	R1195E
410.256	2.131	478677	REC_WORD	4.668	n/a	FOOD	4	1	3	[0, 0, 0]	n/a	0	0	0	n/a	n/a	0.0	0	0	0	FR3	2	R1195E
412.387	2.269	480808	REC_WORD	6.799	n/a	BOY	7	1	3	[0, 0, 0]	n/a	0	0	0	n/a	n/a	0.0	0	0	0	FR3	2	R1195E
414.656	3.709	483077	REC_WORD	9.068	n/a	BALL	6	1	3	[0, 0, 0]	n/a	0	0	0	n/a	n/a	0.0	0	0	0	FR3	2	R1195E
418.365	3.873	486786	REC_WORD_VV	12.777	n/a	<>	-999	0	3	[0, 0, 0]	n/a	0	0	0	n/a	n/a	0.0	0	0	0	FR3	2	R1195E
422.238	2.078	490659	REC_WORD	16.65	n/a	JAIL	8	1	3	[0, 0, 0]	n/a	0	0	0	n/a	n/a	0.0	0	0	0	FR3	2	R1195E
424.316	11.282	492737	REC_WORD	18.728	n/a	ZOO	10	1	3	[0, 0, 0]	n/a	0	0	0	n/a	n/a	0.0	0	0	0	FR3	2	R1195E
435.598	5.362	504018	REC_END	n/a	n/a	n/a	-999	0	3	[0, 0, 0]	n/a	0	0	0	n/a	n/a	0.0	0	0	0	FR3	2	R1195E
440.96	0.5	509380	TRIAL	n/a	n/a	n/a	-999	0	4	[0, 0, 0]	n/a	0	0	0	n/a	n/a	0.0	0	0	0	FR3	2	R1195E
441.46	10.0	509880	COUNTDOWN_START	n/a	n/a	n/a	-999	0	4	[0, 0, 0]	n/a	0	0	0	n/a	n/a	0.0	0	0	0	FR3	2	R1195E
451.888	0.006	520308	COUNTDOWN_END	n/a	n/a	n/a	-999	0	4	[0, 0, 0]	n/a	0	0	0	n/a	n/a	0.0	0	0	0	FR3	2	R1195E
451.894	1.6	520314	ORIENT	n/a	n/a	n/a	-999	0	4	[0, 0, 0]	n/a	0	0	0	n/a	n/a	0.0	0	0	0	FR3	2	R1195E
453.512	2.334	521931	ORIENT_OFF	n/a	n/a	n/a	-999	0	4	[0, 0, 0]	n/a	0	0	0	n/a	n/a	0.0	0	0	0	FR3	2	R1195E
455.846	1.6	524265	WORD	n/a	wordpools/wordpool.txt	WING	1	1	4	[0, 0, 0]	n/a	0	0	0	n/a	n/a	0.0	0	0	0	FR3	2	R1195E
457.463	0.884	525882	WORD_OFF	n/a	n/a	WING	1	0	4	[0, 0, 0]	n/a	0	0	0	n/a	n/a	0.0	0	0	0	FR3	2	R1195E
458.347	1.6	526766	WORD	n/a	wordpools/wordpool.txt	VINE	2	1	4	[0, 0, 0]	n/a	0	0	0	n/a	n/a	0.0	0	0	0	FR3	2	R1195E
459.964	0.816	528383	WORD_OFF	n/a	n/a	VINE	2	0	4	[0, 0, 0]	n/a	0	0	0	n/a	n/a	0.0	0	0	0	FR3	2	R1195E
460.78	1.6	529199	WORD	n/a	wordpools/wordpool.txt	FLOOR	3	1	4	[0, 0, 0]	n/a	0	0	0	n/a	n/a	0.0	0	0	0	FR3	2	R1195E
462.397	0.884	530816	WORD_OFF	n/a	n/a	FLOOR	3	0	4	[0, 0, 0]	n/a	0	0	0	n/a	n/a	0.0	0	0	0	FR3	2	R1195E
463.281	1.6	531700	WORD	n/a	wordpools/wordpool.txt	BIRD	4	0	4	[0, 0, 0]	n/a	0	0	0	n/a	n/a	0.0	0	0	0	FR3	2	R1195E
464.897	0.817	533316	WORD_OFF	n/a	n/a	BIRD	4	0	4	[0, 0, 0]	n/a	0	0	0	n/a	n/a	0.0	0	0	0	FR3	2	R1195E
465.714	1.6	534133	WORD	n/a	wordpools/wordpool.txt	FLUTE	5	0	4	[0, 0, 0]	n/a	0	0	0	n/a	n/a	0.0	0	0	0	FR3	2	R1195E
467.331	0.801	535750	WORD_OFF	n/a	n/a	FLUTE	5	0	4	[0, 0, 0]	n/a	0	0	0	n/a	n/a	0.0	0	0	0	FR3	2	R1195E
468.132	1.6	536551	WORD	n/a	wordpools/wordpool.txt	ROOT	6	1	4	[0, 0, 0]	n/a	0	0	0	n/a	n/a	0.0	0	0	0	FR3	2	R1195E
469.748	0.984	538167	WORD_OFF	n/a	n/a	ROOT	6	0	4	[0, 0, 0]	n/a	0	0	0	n/a	n/a	0.0	0	0	0	FR3	2	R1195E
470.732	1.6	539151	WORD	n/a	wordpools/wordpool.txt	RAKE	7	1	4	[0, 0, 0]	n/a	0	0	0	n/a	n/a	0.0	0	0	0	FR3	2	R1195E
472.349	0.984	540768	WORD_OFF	n/a	n/a	RAKE	7	0	4	[0, 0, 0]	n/a	0	0	0	n/a	n/a	0.0	0	0	0	FR3	2	R1195E
473.333	1.6	541752	WORD	n/a	wordpools/wordpool.txt	LAMP	8	0	4	[0, 0, 0]	n/a	0	0	0	n/a	n/a	0.0	0	0	0	FR3	2	R1195E
474.949	0.984	543368	WORD_OFF	n/a	n/a	LAMP	8	0	4	[0, 0, 0]	n/a	0	0	0	n/a	n/a	0.0	0	0	0	FR3	2	R1195E
475.933	1.6	544352	WORD	n/a	wordpools/wordpool.txt	OAK	9	1	4	[0, 0, 0]	n/a	0	0	0	n/a	n/a	0.0	0	0	0	FR3	2	R1195E
477.55	0.883	545969	WORD_OFF	n/a	n/a	OAK	9	0	4	[0, 0, 0]	n/a	0	0	0	n/a	n/a	0.0	0	0	0	FR3	2	R1195E
478.433	1.6	546852	WORD	n/a	wordpools/wordpool.txt	WEB	10	0	4	[0, 0, 0]	n/a	0	0	0	n/a	n/a	0.0	0	0	0	FR3	2	R1195E
480.05	0.867	548468	WORD_OFF	n/a	n/a	WEB	10	0	4	[0, 0, 0]	n/a	0	0	0	n/a	n/a	0.0	0	0	0	FR3	2	R1195E
480.917	1.6	549335	WORD	n/a	wordpools/wordpool.txt	ANT	11	0	4	[0, 0, 0]	n/a	0	0	0	n/a	n/a	0.0	0	0	0	FR3	2	R1195E
482.534	0.9	550952	WORD_OFF	n/a	n/a	ANT	11	0	4	[0, 0, 0]	n/a	0	0	0	n/a	n/a	0.0	0	0	0	FR3	2	R1195E
483.434	1.6	551852	WORD	n/a	wordpools/wordpool.txt	POND	12	1	4	[0, 0, 0]	n/a	0	0	0	n/a	n/a	0.0	0	0	0	FR3	2	R1195E
485.051	0.0	553469	DISTRACT_START	n/a	n/a	n/a	-999	0	4	[0, 0, 0]	n/a	0	0	0	n/a	n/a	0.0	0	0	0	FR3	2	R1195E
485.051	0.001	553469	WORD_OFF	n/a	n/a	POND	12	0	4	[0, 0, 0]	n/a	0	0	0	n/a	n/a	0.0	0	0	0	FR3	2	R1195E
485.052	0.016	553470	START	n/a	n/a	n/a	-999	0	4	[-999, -999, -999]	n/a	0	0	0	n/a	n/a	0.0	0	0	0	FR3	2	R1195E
485.068	6.384	553486	PROB	6.35	n/a	n/a	-999	0	4	[9, 6, 8]	23	0	0	0	n/a	n/a	0.0	0	0	0	FR3	2	R1195E
491.452	3.784	559870	PROB	3.758	n/a	n/a	-999	0	4	[1, 5, 4]	10	0	0	0	n/a	n/a	0.0	0	0	0	FR3	2	R1195E
495.236	4.568	563654	PROB	4.535	n/a	n/a	-999	0	4	[9, 3, 8]	20	0	0	0	n/a	n/a	0.0	0	0	0	FR3	2	R1195E
499.804	3.117	568222	PROB	3.094	n/a	n/a	-999	0	4	[1, 1, 5]	7	0	0	0	n/a	n/a	0.0	0	0	0	FR3	2	R1195E
502.921	2.946	571339	PROB	2.946	n/a	n/a	-999	0	4	[5, 5, 7]	17	0	0	0	n/a	n/a	0.0	0	0	0	FR3	2	R1195E
505.867	0.021	574285	STOP	n/a	n/a	n/a	-999	0	4	[-999, -999, -999]	n/a	0	0	0	n/a	n/a	0.0	0	0	0	FR3	2	R1195E
505.888	0.617	574306	DISTRACT_END	n/a	n/a	n/a	-999	0	4	[0, 0, 0]	n/a	0	0	0	n/a	n/a	0.0	0	0	0	FR3	2	R1195E
506.505	0.5	574922	RETRIEVAL_ORIENT	n/a	n/a	n/a	-999	0	4	[0, 0, 0]	n/a	0	0	0	n/a	n/a	0.0	0	0	0	FR3	2	R1195E
507.022	1.334	575439	REC_START	n/a	n/a	n/a	-999	0	4	[0, 0, 0]	n/a	0	0	0	n/a	n/a	0.0	0	0	0	FR3	2	R1195E
508.356	0.897	576773	REC_WORD_VV	1.334	n/a	<>	-999	0	4	[0, 0, 0]	n/a	0	0	0	n/a	n/a	0.0	0	0	0	FR3	2	R1195E
509.253	2.108	577670	REC_WORD	2.231	n/a	POND	12	1	4	[0, 0, 0]	n/a	0	0	0	n/a	n/a	0.0	0	0	0	FR3	2	R1195E
511.361	1.975	579778	REC_WORD	4.339	n/a	WING	1	1	4	[0, 0, 0]	n/a	0	0	0	n/a	n/a	0.0	0	0	0	FR3	2	R1195E
513.336	2.307	581753	REC_WORD	6.314	n/a	ROOT	6	1	4	[0, 0, 0]	n/a	0	0	0	n/a	n/a	0.0	0	0	0	FR3	2	R1195E
515.643	3.215	584060	REC_WORD	8.621	n/a	VINE	2	1	4	[0, 0, 0]	n/a	0	0	0	n/a	n/a	0.0	0	0	0	FR3	2	R1195E
518.858	2.55	587275	REC_WORD	11.836	n/a	RAKE	7	1	4	[0, 0, 0]	n/a	0	0	0	n/a	n/a	0.0	0	0	0	FR3	2	R1195E
521.408	7.518	589825	REC_WORD	14.386	n/a	FLOOR	3	1	4	[0, 0, 0]	n/a	0	0	0	n/a	n/a	0.0	0	0	0	FR3	2	R1195E
528.926	8.106	597343	REC_WORD	21.904	n/a	OAK	9	1	4	[0, 0, 0]	n/a	0	0	0	n/a	n/a	0.0	0	0	0	FR3	2	R1195E
537.032	5.396	605448	REC_END	n/a	n/a	n/a	-999	0	4	[0, 0, 0]	n/a	0	0	0	n/a	n/a	0.0	0	0	0	FR3	2	R1195E
542.428	0.5	610844	TRIAL	n/a	n/a	n/a	-999	0	5	[0, 0, 0]	n/a	0	1	0	n/a	n/a	0.0	0	0	0	FR3	2	R1195E
542.928	10.0	611344	COUNTDOWN_START	n/a	n/a	n/a	-999	0	5	[0, 0, 0]	n/a	0	1	0	n/a	n/a	0.0	0	0	0	FR3	2	R1195E
553.356	0.007	621772	COUNTDOWN_END	n/a	n/a	n/a	-999	0	5	[0, 0, 0]	n/a	0	1	0	n/a	n/a	0.0	0	0	0	FR3	2	R1195E
553.363	1.6	621779	ORIENT	n/a	n/a	n/a	-999	0	5	[0, 0, 0]	n/a	0	1	0	n/a	n/a	0.0	0	0	0	FR3	2	R1195E
554.98	1.967	623396	ORIENT_OFF	n/a	n/a	n/a	-999	0	5	[0, 0, 0]	n/a	0	1	0	n/a	n/a	0.0	0	0	0	FR3	2	R1195E
556.947	1.6	625363	WORD	n/a	wordpools/wordpool.txt	OWL	1	1	5	[0, 0, 0]	n/a	0	1	0	n/a	n/a	0.0	0	0	0	FR3	2	R1195E
558.463	0.0	626879	STIM_ON	n/a	n/a	OWL	1	1	5	[0, 0, 0]	n/a	1	1	500	3LD8	3LD9	1000.0	200	100	300	FR3	2	R1195E
558.564	0.399	626980	WORD_OFF	n/a	n/a	OWL	1	0	5	[0, 0, 0]	n/a	1	1	500	3LD8	3LD9	1000.0	200	100	300	FR3	2	R1195E
558.963	0.485	627379	STIM_OFF	n/a	n/a	n/a	1	0	5	[0, 0, 0]	n/a	0	1	500	3LD8	3LD9	1000.0	200	100	300	FR3	2	R1195E
559.448	1.6	627864	WORD	n/a	wordpools/wordpool.txt	DOG	2	1	5	[0, 0, 0]	n/a	0	1	0	n/a	n/a	0.0	0	0	0	FR3	2	R1195E
561.064	0.817	629479	WORD_OFF	n/a	n/a	DOG	2	0	5	[0, 0, 0]	n/a	0	1	0	n/a	n/a	0.0	0	0	0	FR3	2	R1195E
561.881	1.6	630296	WORD	n/a	wordpools/wordpool.txt	FENCE	3	1	5	[0, 0, 0]	n/a	0	1	0	n/a	n/a	0.0	0	0	0	FR3	2	R1195E
563.498	0.9	631913	WORD_OFF	n/a	n/a	FENCE	3	0	5	[0, 0, 0]	n/a	0	1	0	n/a	n/a	0.0	0	0	0	FR3	2	R1195E
564.398	1.6	632813	WORD	n/a	wordpools/wordpool.txt	HOLE	4	0	5	[0, 0, 0]	n/a	0	1	0	n/a	n/a	0.0	0	0	0	FR3	2	R1195E
566.015	0.984	634430	WORD_OFF	n/a	n/a	HOLE	4	0	5	[0, 0, 0]	n/a	0	1	0	n/a	n/a	0.0	0	0	0	FR3	2	R1195E
566.999	1.6	635414	WORD	n/a	wordpools/wordpool.txt	PET	5	1	5	[0, 0, 0]	n/a	0	1	0	n/a	n/a	0.0	0	0	0	FR3	2	R1195E
568.616	0.833	637031	WORD_OFF	n/a	n/a	PET	5	0	5	[0, 0, 0]	n/a	0	1	0	n/a	n/a	0.0	0	0	0	FR3	2	R1195E
569.449	1.6	637864	WORD	n/a	wordpools/wordpool.txt	ARK	6	0	5	[0, 0, 0]	n/a	0	1	0	n/a	n/a	0.0	0	0	0	FR3	2	R1195E
571.066	0.817	639481	WORD_OFF	n/a	n/a	ARK	6	0	5	[0, 0, 0]	n/a	0	1	0	n/a	n/a	0.0	0	0	0	FR3	2	R1195E
571.883	1.6	640298	WORD	n/a	wordpools/wordpool.txt	BROOM	7	0	5	[0, 0, 0]	n/a	0	1	0	n/a	n/a	0.0	0	0	0	FR3	2	R1195E
573.399	0.0	641814	STIM_ON	n/a	n/a	BROOM	7	0	5	[0, 0, 0]	n/a	1	1	500	3LD8	3LD9	1000.0	200	100	300	FR3	2	R1195E
573.5	0.4	641915	WORD_OFF	n/a	n/a	BROOM	7	0	5	[0, 0, 0]	n/a	1	1	500	3LD8	3LD9	1000.0	200	100	300	FR3	2	R1195E
573.9	0.417	642315	STIM_OFF	n/a	n/a	n/a	7	0	5	[0, 0, 0]	n/a	0	1	500	3LD8	3LD9	1000.0	200	100	300	FR3	2	R1195E
574.317	1.6	642732	WORD	n/a	wordpools/wordpool.txt	YARD	8	1	5	[0, 0, 0]	n/a	0	1	0	n/a	n/a	0.0	0	0	0	FR3	2	R1195E
575.934	0.883	644349	WORD_OFF	n/a	n/a	YARD	8	0	5	[0, 0, 0]	n/a	0	1	0	n/a	n/a	0.0	0	0	0	FR3	2	R1195E
576.817	1.6	645232	WORD	n/a	wordpools/wordpool.txt	BUSH	9	0	5	[0, 0, 0]	n/a	0	1	0	n/a	n/a	0.0	0	0	0	FR3	2	R1195E
578.434	0.967	646849	WORD_OFF	n/a	n/a	BUSH	9	0	5	[0, 0, 0]	n/a	0	1	0	n/a	n/a	0.0	0	0	0	FR3	2	R1195E
579.401	1.6	647816	WORD	n/a	wordpools/wordpool.txt	TOE	10	1	5	[0, 0, 0]	n/a	0	1	0	n/a	n/a	0.0	0	0	0	FR3	2	R1195E
580.922	0.0	649337	STIM_ON	n/a	n/a	TOE	10	1	5	[0, 0, 0]	n/a	1	1	500	3LD8	3LD9	1000.0	200	100	300	FR3	2	R1195E
581.018	0.404	649433	WORD_OFF	n/a	n/a	TOE	10	0	5	[0, 0, 0]	n/a	1	1	500	3LD8	3LD9	1000.0	200	100	300	FR3	2	R1195E
581.422	0.496	649837	STIM_OFF	n/a	n/a	n/a	10	0	5	[0, 0, 0]	n/a	0	1	500	3LD8	3LD9	1000.0	200	100	300	FR3	2	R1195E
581.918	1.6	650333	WORD	n/a	wordpools/wordpool.txt	MULE	11	0	5	[0, 0, 0]	n/a	0	1	0	n/a	n/a	0.0	0	0	0	FR3	2	R1195E
583.433	0.0	651848	STIM_ON	n/a	n/a	MULE	11	0	5	[0, 0, 0]	n/a	1	1	500	3LD8	3LD9	1000.0	200	100	300	FR3	2	R1195E
583.535	0.398	651950	WORD_OFF	n/a	n/a	MULE	11	0	5	[0, 0, 0]	n/a	1	1	500	3LD8	3LD9	1000.0	200	100	300	FR3	2	R1195E
583.933	0.552	652348	STIM_OFF	n/a	n/a	n/a	11	0	5	[0, 0, 0]	n/a	0	1	500	3LD8	3LD9	1000.0	200	100	300	FR3	2	R1195E
584.485	1.6	652900	WORD	n/a	wordpools/wordpool.txt	HEN	12	1	5	[0, 0, 0]	n/a	0	1	0	n/a	n/a	0.0	0	0	0	FR3	2	R1195E
586.003	0.0	654417	STIM_ON	n/a	n/a	HEN	12	1	5	[0, 0, 0]	n/a	1	1	500	3LD8	3LD9	1000.0	200	100	300	FR3	2	R1195E
586.102	0.0	654516	WORD_OFF	n/a	n/a	HEN	12	0	5	[0, 0, 0]	n/a	1	1	500	3LD8	3LD9	1000.0	200	100	300	FR3	2	R1195E
586.102	0.001	654516	DISTRACT_START	n/a	n/a	n/a	-999	0	5	[0, 0, 0]	n/a	1	1	500	3LD8	3LD9	1000.0	200	100	300	FR3	2	R1195E
586.103	0.016	654517	START	n/a	n/a	n/a	-999	0	5	[-999, -999, -999]	n/a	0	1	0	n/a	n/a	0.0	0	0	0	FR3	2	R1195E
586.119	0.384	654533	PROB	3.128	n/a	n/a	-999	0	5	[4, 6, 1]	11	0	1	0	n/a	n/a	0.0	0	0	0	FR3	2	R1195E
586.503	2.783	654917	STIM_OFF	n/a	n/a	n/a	-999	0	5	[0, 0, 0]	n/a	0	1	500	3LD8	3LD9	1000.0	200	100	300	FR3	2	R1195E
589.286	9.252	657700	PROB	9.224	n/a	n/a	-999	0	5	[8, 9, 7]	24	0	1	0	n/a	n/a	0.0	0	0	0	FR3	2	R1195E
598.538	3.884	666952	PROB	3.851	n/a	n/a	-999	0	5	[3, 5, 6]	14	0	1	0	n/a	n/a	0.0	0	0	0	FR3	2	R1195E
602.422	3.634	670836	PROB	3.608	n/a	n/a	-999	0	5	[1, 3, 9]	13	0	1	0	n/a	n/a	0.0	0	0	0	FR3	2	R1195E
606.056	3.406	674470	PROB	3.406	n/a	n/a	-999	0	5	[4, 5, 2]	11	0	1	0	n/a	n/a	0.0	0	0	0	FR3	2	R1195E
609.462	0.011	677876	STOP	n/a	n/a	n/a	-999	0	5	[-999, -999, -999]	n/a	0	1	0	n/a	n/a	0.0	0	0	0	FR3	2	R1195E
609.473	0.6	677887	DISTRACT_END	n/a	n/a	n/a	-999	0	5	[0, 0, 0]	n/a	0	1	0	n/a	n/a	0.0	0	0	0	FR3	2	R1195E
610.073	0.5	678487	RETRIEVAL_ORIENT	n/a	n/a	n/a	-999	0	5	[0, 0, 0]	n/a	0	1	0	n/a	n/a	0.0	0	0	0	FR3	2	R1195E
610.591	2.126	679005	REC_START	n/a	n/a	n/a	-999	0	5	[0, 0, 0]	n/a	0	1	0	n/a	n/a	0.0	0	0	0	FR3	2	R1195E
612.717	1.35	681130	REC_WORD_VV	2.126	n/a	<>	-999	0	5	[0, 0, 0]	n/a	0	1	0	n/a	n/a	0.0	0	0	0	FR3	2	R1195E
614.067	1.358	682480	REC_WORD	3.476	n/a	OWL	1	1	5	[0, 0, 0]	n/a	0	1	0	n/a	n/a	0.0	0	0	0	FR3	2	R1195E
615.425	1.813	683838	REC_WORD	4.834	n/a	DOG	2	1	5	[0, 0, 0]	n/a	0	1	0	n/a	n/a	0.0	0	0	0	FR3	2	R1195E
617.238	3.217	685651	REC_WORD	6.647	n/a	HEN	12	1	5	[0, 0, 0]	n/a	0	1	0	n/a	n/a	0.0	0	0	0	FR3	2	R1195E
620.455	2.885	688868	REC_WORD	9.864	n/a	TOE	10	1	5	[0, 0, 0]	n/a	0	1	0	n/a	n/a	0.0	0	0	0	FR3	2	R1195E
623.34	2.421	691753	REC_WORD	12.749	n/a	PET	5	1	5	[0, 0, 0]	n/a	0	1	0	n/a	n/a	0.0	0	0	0	FR3	2	R1195E
625.761	1.469	694174	REC_WORD	15.17	n/a	POLE	-999	0	5	[0, 0, 0]	n/a	0	1	0	n/a	n/a	0.0	0	0	0	FR3	2	R1195E
627.23	1.649	695643	REC_WORD	16.639	n/a	FENCE	3	1	5	[0, 0, 0]	n/a	0	1	0	n/a	n/a	0.0	0	0	0	FR3	2	R1195E
628.879	11.722	697292	REC_WORD	18.288	n/a	YARD	8	1	5	[0, 0, 0]	n/a	0	1	0	n/a	n/a	0.0	0	0	0	FR3	2	R1195E
640.601	5.478	709013	REC_END	n/a	n/a	n/a	-999	0	5	[0, 0, 0]	n/a	0	1	0	n/a	n/a	0.0	0	0	0	FR3	2	R1195E
646.079	0.5	714491	TRIAL	n/a	n/a	n/a	-999	0	6	[0, 0, 0]	n/a	0	1	0	n/a	n/a	0.0	0	0	0	FR3	2	R1195E
646.579	10.0	714991	COUNTDOWN_START	n/a	n/a	n/a	-999	0	6	[0, 0, 0]	n/a	0	1	0	n/a	n/a	0.0	0	0	0	FR3	2	R1195E
657.007	0.007	725419	COUNTDOWN_END	n/a	n/a	n/a	-999	0	6	[0, 0, 0]	n/a	0	1	0	n/a	n/a	0.0	0	0	0	FR3	2	R1195E
657.014	1.6	725426	ORIENT	n/a	n/a	n/a	-999	0	6	[0, 0, 0]	n/a	0	1	0	n/a	n/a	0.0	0	0	0	FR3	2	R1195E
658.632	2.15	727044	ORIENT_OFF	n/a	n/a	n/a	-999	0	6	[0, 0, 0]	n/a	0	1	0	n/a	n/a	0.0	0	0	0	FR3	2	R1195E
660.782	1.6	729194	WORD	n/a	wordpools/wordpool.txt	CANE	1	1	6	[0, 0, 0]	n/a	0	1	0	n/a	n/a	0.0	0	0	0	FR3	2	R1195E
662.399	0.933	730811	WORD_OFF	n/a	n/a	CANE	1	0	6	[0, 0, 0]	n/a	0	1	0	n/a	n/a	0.0	0	0	0	FR3	2	R1195E
663.332	1.6	731744	WORD	n/a	wordpools/wordpool.txt	WALL	2	1	6	[0, 0, 0]	n/a	0	1	0	n/a	n/a	0.0	0	0	0	FR3	2	R1195E
664.949	0.949	733361	WORD_OFF	n/a	n/a	WALL	2	0	6	[0, 0, 0]	n/a	0	1	0	n/a	n/a	0.0	0	0	0	FR3	2	R1195E
665.898	1.6	734309	WORD	n/a	wordpools/wordpool.txt	THUMB	3	1	6	[0, 0, 0]	n/a	0	1	0	n/a	n/a	0.0	0	0	0	FR3	2	R1195E
667.417	0.0	735828	STIM_ON	n/a	n/a	THUMB	3	1	6	[0, 0, 0]	n/a	1	1	500	3LD8	3LD9	1000.0	200	100	300	FR3	2	R1195E
667.516	0.401	735927	WORD_OFF	n/a	n/a	THUMB	3	0	6	[0, 0, 0]	n/a	1	1	500	3LD8	3LD9	1000.0	200	100	300	FR3	2	R1195E
667.917	0.433	736328	STIM_OFF	n/a	n/a	n/a	3	0	6	[0, 0, 0]	n/a	0	1	500	3LD8	3LD9	1000.0	200	100	300	FR3	2	R1195E
668.35	1.6	736761	WORD	n/a	wordpools/wordpool.txt	NAIL	4	1	6	[0, 0, 0]	n/a	0	1	0	n/a	n/a	0.0	0	0	0	FR3	2	R1195E
669.967	0.8	738378	WORD_OFF	n/a	n/a	NAIL	4	0	6	[0, 0, 0]	n/a	0	1	0	n/a	n/a	0.0	0	0	0	FR3	2	R1195E
670.767	1.6	739178	WORD	n/a	wordpools/wordpool.txt	DART	5	0	6	[0, 0, 0]	n/a	0	1	0	n/a	n/a	0.0	0	0	0	FR3	2	R1195E
672.289	0.0	740700	STIM_ON	n/a	n/a	DART	5	0	6	[0, 0, 0]	n/a	1	1	500	3LD8	3LD9	1000.0	200	100	300	FR3	2	R1195E
672.384	0.405	740795	WORD_OFF	n/a	n/a	DART	5	0	6	[0, 0, 0]	n/a	1	1	500	3LD8	3LD9	1000.0	200	100	300	FR3	2	R1195E
672.789	0.495	741200	STIM_OFF	n/a	n/a	n/a	5	0	6	[0, 0, 0]	n/a	0	1	500	3LD8	3LD9	1000.0	200	100	300	FR3	2	R1195E
673.284	1.6	741695	WORD	n/a	wordpools/wordpool.txt	TRAY	6	0	6	[0, 0, 0]	n/a	0	1	0	n/a	n/a	0.0	0	0	0	FR3	2	R1195E
674.9	0.901	743311	WORD_OFF	n/a	n/a	TRAY	6	0	6	[0, 0, 0]	n/a	0	1	0	n/a	n/a	0.0	0	0	0	FR3	2	R1195E
675.801	1.6	744212	WORD	n/a	wordpools/wordpool.txt	WOOD	7	0	6	[0, 0, 0]	n/a	0	1	0	n/a	n/a	0.0	0	0	0	FR3	2	R1195E
677.418	0.867	745829	WORD_OFF	n/a	n/a	WOOD	7	0	6	[0, 0, 0]	n/a	0	1	0	n/a	n/a	0.0	0	0	0	FR3	2	R1195E
678.285	1.6	746696	WORD	n/a	wordpools/wordpool.txt	PEACH	8	0	6	[0, 0, 0]	n/a	0	1	0	n/a	n/a	0.0	0	0	0	FR3	2	R1195E
679.814	0.0	748225	STIM_ON	n/a	n/a	PEACH	8	0	6	[0, 0, 0]	n/a	1	1	500	3LD8	3LD9	1000.0	200	100	300	FR3	2	R1195E
679.901	0.413	748312	WORD_OFF	n/a	n/a	PEACH	8	0	6	[0, 0, 0]	n/a	1	1	500	3LD8	3LD9	1000.0	200	100	300	FR3	2	R1195E
680.314	0.371	748725	STIM_OFF	n/a	n/a	n/a	8	0	6	[0, 0, 0]	n/a	0	1	500	3LD8	3LD9	1000.0	200	100	300	FR3	2	R1195E
680.685	1.6	749096	WORD	n/a	wordpools/wordpool.txt	STRAW	9	0	6	[0, 0, 0]	n/a	0	1	0	n/a	n/a	0.0	0	0	0	FR3	2	R1195E
682.212	0.0	750623	STIM_ON	n/a	n/a	STRAW	9	0	6	[0, 0, 0]	n/a	1	1	500	3LD8	3LD9	1000.0	200	100	300	FR3	2	R1195E
682.302	0.41	750713	WORD_OFF	n/a	n/a	STRAW	9	0	6	[0, 0, 0]	n/a	1	1	500	3LD8	3LD9	1000.0	200	100	300	FR3	2	R1195E
682.712	0.49	751123	STIM_OFF	n/a	n/a	n/a	9	0	6	[0, 0, 0]	n/a	0	1	500	3LD8	3LD9	1000.0	200	100	300	FR3	2	R1195E
683.202	1.6	751613	WORD	n/a	wordpools/wordpool.txt	SLEEVE	10	0	6	[0, 0, 0]	n/a	0	1	0	n/a	n/a	0.0	0	0	0	FR3	2	R1195E
684.819	0.884	753230	WORD_OFF	n/a	n/a	SLEEVE	10	0	6	[0, 0, 0]	n/a	0	1	0	n/a	n/a	0.0	0	0	0	FR3	2	R1195E
685.703	1.6	754114	WORD	n/a	wordpools/wordpool.txt	HAND	11	0	6	[0, 0, 0]	n/a	0	1	0	n/a	n/a	0.0	0	0	0	FR3	2	R1195E
687.32	0.983	755731	WORD_OFF	n/a	n/a	HAND	11	0	6	[0, 0, 0]	n/a	0	1	0	n/a	n/a	0.0	0	0	0	FR3	2	R1195E
688.303	1.6	756714	WORD	n/a	wordpools/wordpool.txt	BOARD	12	0	6	[0, 0, 0]	n/a	0	1	0	n/a	n/a	0.0	0	0	0	FR3	2	R1195E
689.92	0.0	758331	DISTRACT_START	n/a	n/a	n/a	-999	0	6	[0, 0, 0]	n/a	0	1	0	n/a	n/a	0.0	0	0	0	FR3	2	R1195E
689.92	0.001	758331	WORD_OFF	n/a	n/a	BOARD	12	0	6	[0, 0, 0]	n/a	0	1	0	n/a	n/a	0.0	0	0	0	FR3	2	R1195E
689.921	0.016	758332	START	n/a	n/a	n/a	-999	0	6	[-999, -999, -999]	n/a	0	1	0	n/a	n/a	0.0	0	0	0	FR3	2	R1195E
689.937	3.851	758348	PROB	3.821	n/a	n/a	-999	0	6	[5, 3, 9]	17	0	1	0	n/a	n/a	0.0	0	0	0	FR3	2	R1195E
693.788	3.817	762198	PROB	3.787	n/a	n/a	-999	0	6	[2, 5, 1]	8	0	1	0	n/a	n/a	0.0	0	0	0	FR3	2	R1195E
697.605	9.268	766015	PROB	9.231	n/a	n/a	-999	0	6	[7, 6, 9]	22	0	1	0	n/a	n/a	0.0	0	0	0	FR3	2	R1195E
706.873	2.734	775283	PROB	2.708	n/a	n/a	-999	0	6	[1, 2, 7]	10	0	1	0	n/a	n/a	0.0	0	0	0	FR3	2	R1195E
709.607	2.277	778017	PROB	2.277	n/a	n/a	-999	0	6	[1, 1, 5]	7	0	1	0	n/a	n/a	0.0	0	0	0	FR3	2	R1195E
711.884	0.006	780294	STOP	n/a	n/a	n/a	-999	0	6	[-999, -999, -999]	n/a	0	1	0	n/a	n/a	0.0	0	0	0	FR3	2	R1195E
711.89	0.65	780300	DISTRACT_END	n/a	n/a	n/a	-999	0	6	[0, 0, 0]	n/a	0	1	0	n/a	n/a	0.0	0	0	0	FR3	2	R1195E
712.54	0.5	780950	RETRIEVAL_ORIENT	n/a	n/a	n/a	-999	0	6	[0, 0, 0]	n/a	0	1	0	n/a	n/a	0.0	0	0	0	FR3	2	R1195E
713.058	3.674	781468	REC_START	n/a	n/a	n/a	-999	0	6	[0, 0, 0]	n/a	0	1	0	n/a	n/a	0.0	0	0	0	FR3	2	R1195E
716.732	2.226	785142	REC_WORD	3.674	n/a	THUMB	3	1	6	[0, 0, 0]	n/a	0	1	0	n/a	n/a	0.0	0	0	0	FR3	2	R1195E
718.958	1.952	787367	REC_WORD	5.9	n/a	NAIL	4	1	6	[0, 0, 0]	n/a	0	1	0	n/a	n/a	0.0	0	0	0	FR3	2	R1195E
720.91	6.582	789319	REC_WORD	7.852	n/a	CANE	1	1	6	[0, 0, 0]	n/a	0	1	0	n/a	n/a	0.0	0	0	0	FR3	2	R1195E
727.492	15.576	795901	REC_WORD	14.434	n/a	WALL	2	1	6	[0, 0, 0]	n/a	0	1	0	n/a	n/a	0.0	0	0	0	FR3	2	R1195E
743.068	5.462	811477	REC_END	n/a	n/a	n/a	-999	0	6	[0, 0, 0]	n/a	0	1	0	n/a	n/a	0.0	0	0	0	FR3	2	R1195E
748.53	0.5	816938	TRIAL	n/a	n/a	n/a	-999	0	7	[0, 0, 0]	n/a	0	1	0	n/a	n/a	0.0	0	0	0	FR3	2	R1195E
749.03	10.0	817438	COUNTDOWN_START	n/a	n/a	n/a	-999	0	7	[0, 0, 0]	n/a	0	1	0	n/a	n/a	0.0	0	0	0	FR3	2	R1195E
759.458	0.008	827866	COUNTDOWN_END	n/a	n/a	n/a	-999	0	7	[0, 0, 0]	n/a	0	1	0	n/a	n/a	0.0	0	0	0	FR3	2	R1195E
759.466	1.6	827874	ORIENT	n/a	n/a	n/a	-999	0	7	[0, 0, 0]	n/a	0	1	0	n/a	n/a	0.0	0	0	0	FR3	2	R1195E
761.083	1.933	829491	ORIENT_OFF	n/a	n/a	n/a	-999	0	7	[0, 0, 0]	n/a	0	1	0	n/a	n/a	0.0	0	0	0	FR3	2	R1195E
763.016	1.6	831424	WORD	n/a	wordpools/wordpool.txt	CHEEK	1	1	7	[0, 0, 0]	n/a	0	1	0	n/a	n/a	0.0	0	0	0	FR3	2	R1195E
764.536	0.0	832944	STIM_ON	n/a	n/a	CHEEK	1	1	7	[0, 0, 0]	n/a	1	1	500	3LD8	3LD9	1000.0	200	100	300	FR3	2	R1195E
764.633	0.403	833041	WORD_OFF	n/a	n/a	CHEEK	1	0	7	[0, 0, 0]	n/a	1	1	500	3LD8	3LD9	1000.0	200	100	300	FR3	2	R1195E
765.036	0.414	833444	STIM_OFF	n/a	n/a	n/a	1	0	7	[0, 0, 0]	n/a	0	1	500	3LD8	3LD9	1000.0	200	100	300	FR3	2	R1195E
765.45	1.6	833858	WORD	n/a	wordpools/wordpool.txt	STICK	2	1	7	[0, 0, 0]	n/a	0	1	0	n/a	n/a	0.0	0	0	0	FR3	2	R1195E
766.979	0.0	835387	STIM_ON	n/a	n/a	STICK	2	1	7	[0, 0, 0]	n/a	1	1	500	3LD8	3LD9	1000.0	200	100	300	FR3	2	R1195E
767.067	0.412	835475	WORD_OFF	n/a	n/a	STICK	2	0	7	[0, 0, 0]	n/a	1	1	500	3LD8	3LD9	1000.0	200	100	300	FR3	2	R1195E
767.479	0.571	835887	STIM_OFF	n/a	n/a	n/a	2	0	7	[0, 0, 0]	n/a	0	1	500	3LD8	3LD9	1000.0	200	100	300	FR3	2	R1195E
768.05	1.6	836458	WORD	n/a	wordpools/wordpool.txt	NEST	3	0	7	[0, 0, 0]	n/a	0	1	0	n/a	n/a	0.0	0	0	0	FR3	2	R1195E
769.578	0.0	837986	STIM_ON	n/a	n/a	NEST	3	0	7	[0, 0, 0]	n/a	1	1	500	3LD8	3LD9	1000.0	200	100	300	FR3	2	R1195E
769.667	0.411	838075	WORD_OFF	n/a	n/a	NEST	3	0	7	[0, 0, 0]	n/a	1	1	500	3LD8	3LD9	1000.0	200	100	300	FR3	2	R1195E
770.078	0.406	838486	STIM_OFF	n/a	n/a	n/a	3	0	7	[0, 0, 0]	n/a	0	1	500	3LD8	3LD9	1000.0	200	100	300	FR3	2	R1195E
770.484	1.6	838892	WORD	n/a	wordpools/wordpool.txt	TREE	4	1	7	[0, 0, 0]	n/a	0	1	0	n/a	n/a	0.0	0	0	0	FR3	2	R1195E
772.008	0.0	840415	STIM_ON	n/a	n/a	TREE	4	1	7	[0, 0, 0]	n/a	1	1	500	3LD8	3LD9	1000.0	200	100	300	FR3	2	R1195E
772.101	0.408	840508	WORD_OFF	n/a	n/a	TREE	4	0	7	[0, 0, 0]	n/a	1	1	500	3LD8	3LD9	1000.0	200	100	300	FR3	2	R1195E
772.509	0.442	840916	STIM_OFF	n/a	n/a	n/a	4	0	7	[0, 0, 0]	n/a	0	1	500	3LD8	3LD9	1000.0	200	100	300	FR3	2	R1195E
772.951	1.6	841358	WORD	n/a	wordpools/wordpool.txt	AXE	5	1	7	[0, 0, 0]	n/a	0	1	0	n/a	n/a	0.0	0	0	0	FR3	2	R1195E
774.48	0.0	842887	STIM_ON	n/a	n/a	AXE	5	1	7	[0, 0, 0]	n/a	1	1	500	3LD8	3LD9	1000.0	200	100	300	FR3	2	R1195E
774.568	0.412	842975	WORD_OFF	n/a	n/a	AXE	5	0	7	[0, 0, 0]	n/a	1	1	500	3LD8	3LD9	1000.0	200	100	300	FR3	2	R1195E
774.98	0.455	843387	STIM_OFF	n/a	n/a	n/a	5	0	7	[0, 0, 0]	n/a	0	1	500	3LD8	3LD9	1000.0	200	100	300	FR3	2	R1195E
775.435	1.6	843842	WORD	n/a	wordpools/wordpool.txt	RUG	6	0	7	[0, 0, 0]	n/a	0	1	0	n/a	n/a	0.0	0	0	0	FR3	2	R1195E
776.961	0.0	845368	STIM_ON	n/a	n/a	RUG	6	0	7	[0, 0, 0]	n/a	1	1	500	3LD8	3LD9	1000.0	200	100	300	FR3	2	R1195E
777.052	0.409	845459	WORD_OFF	n/a	n/a	RUG	6	0	7	[0, 0, 0]	n/a	1	1	500	3LD8	3LD9	1000.0	200	100	300	FR3	2	R1195E
777.461	0.391	845868	STIM_OFF	n/a	n/a	n/a	6	0	7	[0, 0, 0]	n/a	0	1	500	3LD8	3LD9	1000.0	200	100	300	FR3	2	R1195E
777.852	1.6	846259	WORD	n/a	wordpools/wordpool.txt	DRUM	7	0	7	[0, 0, 0]	n/a	0	1	0	n/a	n/a	0.0	0	0	0	FR3	2	R1195E
779.469	0.85	847876	WORD_OFF	n/a	n/a	DRUM	7	0	7	[0, 0, 0]	n/a	0	1	0	n/a	n/a	0.0	0	0	0	FR3	2	R1195E
780.319	1.6	848726	WORD	n/a	wordpools/wordpool.txt	PALM	8	1	7	[0, 0, 0]	n/a	0	1	0	n/a	n/a	0.0	0	0	0	FR3	2	R1195E
781.936	0.984	850343	WORD_OFF	n/a	n/a	PALM	8	0	7	[0, 0, 0]	n/a	0	1	0	n/a	n/a	0.0	0	0	0	FR3	2	R1195E
782.92	1.6	851327	WORD	n/a	wordpools/wordpool.txt	HILL	9	1	7	[0, 0, 0]	n/a	0	1	0	n/a	n/a	0.0	0	0	0	FR3	2	R1195E
784.537	0.783	852944	WORD_OFF	n/a	n/a	HILL	9	0	7	[0, 0, 0]	n/a	0	1	0	n/a	n/a	0.0	0	0	0	FR3	2	R1195E
785.32	1.6	853727	WORD	n/a	wordpools/wordpool.txt	KITE	10	0	7	[0, 0, 0]	n/a	0	1	0	n/a	n/a	0.0	0	0	0	FR3	2	R1195E
786.849	0.0	855256	STIM_ON	n/a	n/a	KITE	10	0	7	[0, 0, 0]	n/a	1	1	500	3LD8	3LD9	1000.0	200	100	300	FR3	2	R1195E
786.937	0.412	855344	WORD_OFF	n/a	n/a	KITE	10	0	7	[0, 0, 0]	n/a	1	1	500	3LD8	3LD9	1000.0	200	100	300	FR3	2	R1195E
787.349	0.355	855756	STIM_OFF	n/a	n/a	n/a	10	0	7	[0, 0, 0]	n/a	0	1	500	3LD8	3LD9	1000.0	200	100	300	FR3	2	R1195E
787.704	1.6	856111	WORD	n/a	wordpools/wordpool.txt	SINK	11	0	7	[0, 0, 0]	n/a	0	1	0	n/a	n/a	0.0	0	0	0	FR3	2	R1195E
789.233	0.0	857640	STIM_ON	n/a	n/a	SINK	11	0	7	[0, 0, 0]	n/a	1	1	500	3LD8	3LD9	1000.0	200	100	300	FR3	2	R1195E
789.321	0.412	857728	WORD_OFF	n/a	n/a	SINK	11	0	7	[0, 0, 0]	n/a	1	1	500	3LD8	3LD9	1000.0	200	100	300	FR3	2	R1195E
789.733	0.521	858140	STIM_OFF	n/a	n/a	n/a	11	0	7	[0, 0, 0]	n/a	0	1	500	3LD8	3LD9	1000.0	200	100	300	FR3	2	R1195E
790.254	1.6	858661	WORD	n/a	wordpools/wordpool.txt	SHELL	12	1	7	[0, 0, 0]	n/a	0	1	0	n/a	n/a	0.0	0	0	0	FR3	2	R1195E
791.781	0.0	860188	STIM_ON	n/a	n/a	SHELL	12	1	7	[0, 0, 0]	n/a	1	1	500	3LD8	3LD9	1000.0	200	100	300	FR3	2	R1195E
791.871	0.0	860278	DISTRACT_START	n/a	n/a	n/a	-999	0	7	[0, 0, 0]	n/a	1	1	500	3LD8	3LD9	1000.0	200	100	300	FR3	2	R1195E
791.871	0.001	860278	WORD_OFF	n/a	n/a	SHELL	12	0	7	[0, 0, 0]	n/a	1	1	500	3LD8	3LD9	1000.0	200	100	300	FR3	2	R1195E
791.872	0.016	860279	START	n/a	n/a	n/a	-999	0	7	[-999, -999, -999]	n/a	0	1	0	n/a	n/a	0.0	0	0	0	FR3	2	R1195E
791.888	0.393	860295	PROB	3.172	n/a	n/a	-999	0	7	[2, 2, 5]	9	0	1	0	n/a	n/a	0.0	0	0	0	FR3	2	R1195E
792.281	2.808	860688	STIM_OFF	n/a	n/a	n/a	-999	0	7	[0, 0, 0]	n/a	0	1	500	3LD8	3LD9	1000.0	200	100	300	FR3	2	R1195E
795.089	4.55	863496	PROB	4.522	n/a	n/a	-999	0	7	[3, 6, 5]	14	0	1	0	n/a	n/a	0.0	0	0	0	FR3	2	R1195E
799.639	3.151	868045	PROB	3.116	n/a	n/a	-999	0	7	[1, 6, 9]	14	0	1	0	n/a	n/a	0.0	0	0	0	FR3	2	R1195E
802.79	5.618	871196	PROB	5.584	n/a	n/a	-999	0	7	[8, 7, 5]	20	0	1	0	n/a	n/a	0.0	0	0	0	FR3	2	R1195E
808.408	10.741	876814	PROB	10.741	n/a	n/a	-999	0	7	[8, 9, 8]	25	0	1	0	n/a	n/a	0.0	0	0	0	FR3	2	R1195E
819.149	0.01	887555	STOP	n/a	n/a	n/a	-999	0	7	[-999, -999, -999]	n/a	0	1	0	n/a	n/a	0.0	0	0	0	FR3	2	R1195E
819.159	0.667	887565	DISTRACT_END	n/a	n/a	n/a	-999	0	7	[0, 0, 0]	n/a	0	1	0	n/a	n/a	0.0	0	0	0	FR3	2	R1195E
819.826	0.5	888232	RETRIEVAL_ORIENT	n/a	n/a	n/a	-999	0	7	[0, 0, 0]	n/a	0	1	0	n/a	n/a	0.0	0	0	0	FR3	2	R1195E
820.344	2.02	888750	REC_START	n/a	n/a	n/a	-999	0	7	[0, 0, 0]	n/a	0	1	0	n/a	n/a	0.0	0	0	0	FR3	2	R1195E
822.364	1.473	890770	REC_WORD	2.02	n/a	SHELL	12	1	7	[0, 0, 0]	n/a	0	1	0	n/a	n/a	0.0	0	0	0	FR3	2	R1195E
823.837	1.577	892243	REC_WORD	3.493	n/a	WOOD	-999	0	7	[0, 0, 0]	n/a	0	1	0	n/a	n/a	0.0	0	0	0	FR3	2	R1195E
825.414	2.782	893819	REC_WORD	5.07	n/a	TREE	4	1	7	[0, 0, 0]	n/a	0	1	0	n/a	n/a	0.0	0	0	0	FR3	2	R1195E
828.196	2.059	896601	REC_WORD	7.852	n/a	PALM	8	1	7	[0, 0, 0]	n/a	0	1	0	n/a	n/a	0.0	0	0	0	FR3	2	R1195E
830.255	1.695	898660	REC_WORD	9.911	n/a	AXE	5	1	7	[0, 0, 0]	n/a	0	1	0	n/a	n/a	0.0	0	0	0	FR3	2	R1195E
831.95	1.74	900355	REC_WORD	11.606	n/a	CHEEK	1	1	7	[0, 0, 0]	n/a	0	1	0	n/a	n/a	0.0	0	0	0	FR3	2	R1195E
833.69	7.289	902095	REC_WORD	13.346	n/a	STICK	2	1	7	[0, 0, 0]	n/a	0	1	0	n/a	n/a	0.0	0	0	0	FR3	2	R1195E
840.979	9.374	909384	REC_WORD	20.635	n/a	HILL	9	1	7	[0, 0, 0]	n/a	0	1	0	n/a	n/a	0.0	0	0	0	FR3	2	R1195E
850.353	5.129	918758	REC_END	n/a	n/a	n/a	-999	0	7	[0, 0, 0]	n/a	0	1	0	n/a	n/a	0.0	0	0	0	FR3	2	R1195E
855.482	0.5	923886	TRIAL	n/a	n/a	n/a	-999	0	8	[0, 0, 0]	n/a	0	0	0	n/a	n/a	0.0	0	0	0	FR3	2	R1195E
855.982	10.0	924386	COUNTDOWN_START	n/a	n/a	n/a	-999	0	8	[0, 0, 0]	n/a	0	0	0	n/a	n/a	0.0	0	0	0	FR3	2	R1195E
866.41	0.008	934814	COUNTDOWN_END	n/a	n/a	n/a	-999	0	8	[0, 0, 0]	n/a	0	0	0	n/a	n/a	0.0	0	0	0	FR3	2	R1195E
866.418	1.6	934822	ORIENT	n/a	n/a	n/a	-999	0	8	[0, 0, 0]	n/a	0	0	0	n/a	n/a	0.0	0	0	0	FR3	2	R1195E
868.035	2.2	936439	ORIENT_OFF	n/a	n/a	n/a	-999	0	8	[0, 0, 0]	n/a	0	0	0	n/a	n/a	0.0	0	0	0	FR3	2	R1195E
870.235	1.6	938639	WORD	n/a	wordpools/wordpool.txt	CAR	1	1	8	[0, 0, 0]	n/a	0	0	0	n/a	n/a	0.0	0	0	0	FR3	2	R1195E
871.852	0.917	940256	WORD_OFF	n/a	n/a	CAR	1	0	8	[0, 0, 0]	n/a	0	0	0	n/a	n/a	0.0	0	0	0	FR3	2	R1195E
872.769	1.6	941173	WORD	n/a	wordpools/wordpool.txt	HORSE	2	1	8	[0, 0, 0]	n/a	0	0	0	n/a	n/a	0.0	0	0	0	FR3	2	R1195E
874.386	0.967	942790	WORD_OFF	n/a	n/a	HORSE	2	0	8	[0, 0, 0]	n/a	0	0	0	n/a	n/a	0.0	0	0	0	FR3	2	R1195E
875.353	1.6	943757	WORD	n/a	wordpools/wordpool.txt	SHIP	3	1	8	[0, 0, 0]	n/a	0	0	0	n/a	n/a	0.0	0	0	0	FR3	2	R1195E
876.97	1.016	945374	WORD_OFF	n/a	n/a	SHIP	3	0	8	[0, 0, 0]	n/a	0	0	0	n/a	n/a	0.0	0	0	0	FR3	2	R1195E
877.986	1.6	946389	WORD	n/a	wordpools/wordpool.txt	JUDGE	4	0	8	[0, 0, 0]	n/a	0	0	0	n/a	n/a	0.0	0	0	0	FR3	2	R1195E
879.603	0.817	948006	WORD_OFF	n/a	n/a	JUDGE	4	0	8	[0, 0, 0]	n/a	0	0	0	n/a	n/a	0.0	0	0	0	FR3	2	R1195E
880.42	1.6	948823	WORD	n/a	wordpools/wordpool.txt	SPARK	5	0	8	[0, 0, 0]	n/a	0	0	0	n/a	n/a	0.0	0	0	0	FR3	2	R1195E
882.037	0.917	950440	WORD_OFF	n/a	n/a	SPARK	5	0	8	[0, 0, 0]	n/a	0	0	0	n/a	n/a	0.0	0	0	0	FR3	2	R1195E
882.954	1.6	951357	WORD	n/a	wordpools/wordpool.txt	SWORD	6	0	8	[0, 0, 0]	n/a	0	0	0	n/a	n/a	0.0	0	0	0	FR3	2	R1195E
884.571	0.8	952974	WORD_OFF	n/a	n/a	SWORD	6	0	8	[0, 0, 0]	n/a	0	0	0	n/a	n/a	0.0	0	0	0	FR3	2	R1195E
885.371	1.6	953774	WORD	n/a	wordpools/wordpool.txt	STORM	7	1	8	[0, 0, 0]	n/a	0	0	0	n/a	n/a	0.0	0	0	0	FR3	2	R1195E
886.988	0.833	955391	WORD_OFF	n/a	n/a	STORM	7	0	8	[0, 0, 0]	n/a	0	0	0	n/a	n/a	0.0	0	0	0	FR3	2	R1195E
887.821	1.6	956224	WORD	n/a	wordpools/wordpool.txt	SUN	8	1	8	[0, 0, 0]	n/a	0	0	0	n/a	n/a	0.0	0	0	0	FR3	2	R1195E
889.438	0.884	957841	WORD_OFF	n/a	n/a	SUN	8	0	8	[0, 0, 0]	n/a	0	0	0	n/a	n/a	0.0	0	0	0	FR3	2	R1195E
890.322	1.6	958725	WORD	n/a	wordpools/wordpool.txt	LEG	9	0	8	[0, 0, 0]	n/a	0	0	0	n/a	n/a	0.0	0	0	0	FR3	2	R1195E
891.939	0.783	960342	WORD_OFF	n/a	n/a	LEG	9	0	8	[0, 0, 0]	n/a	0	0	0	n/a	n/a	0.0	0	0	0	FR3	2	R1195E
892.722	1.6	961125	WORD	n/a	wordpools/wordpool.txt	SOCK	10	0	8	[0, 0, 0]	n/a	0	0	0	n/a	n/a	0.0	0	0	0	FR3	2	R1195E
894.339	0.817	962742	WORD_OFF	n/a	n/a	SOCK	10	0	8	[0, 0, 0]	n/a	0	0	0	n/a	n/a	0.0	0	0	0	FR3	2	R1195E
895.156	1.6	963559	WORD	n/a	wordpools/wordpool.txt	SLIME	11	0	8	[0, 0, 0]	n/a	0	0	0	n/a	n/a	0.0	0	0	0	FR3	2	R1195E
896.773	1.0	965176	WORD_OFF	n/a	n/a	SLIME	11	0	8	[0, 0, 0]	n/a	0	0	0	n/a	n/a	0.0	0	0	0	FR3	2	R1195E
897.773	1.6	966176	WORD	n/a	wordpools/wordpool.txt	SAIL	12	1	8	[0, 0, 0]	n/a	0	0	0	n/a	n/a	0.0	0	0	0	FR3	2	R1195E
899.39	0.0	967793	WORD_OFF	n/a	n/a	SAIL	12	0	8	[0, 0, 0]	n/a	0	0	0	n/a	n/a	0.0	0	0	0	FR3	2	R1195E
899.39	0.001	967793	DISTRACT_START	n/a	n/a	n/a	-999	0	8	[0, 0, 0]	n/a	0	0	0	n/a	n/a	0.0	0	0	0	FR3	2	R1195E
899.391	0.016	967794	START	n/a	n/a	n/a	-999	0	8	[-999, -999, -999]	n/a	0	0	0	n/a	n/a	0.0	0	0	0	FR3	2	R1195E
899.407	3.6	967810	PROB	3.572	n/a	n/a	-999	0	8	[4, 6, 5]	15	0	0	0	n/a	n/a	0.0	0	0	0	FR3	2	R1195E
903.007	4.518	971410	PROB	4.484	n/a	n/a	-999	0	8	[3, 1, 8]	12	0	0	0	n/a	n/a	0.0	0	0	0	FR3	2	R1195E
907.525	3.934	975927	PROB	3.909	n/a	n/a	-999	0	8	[4, 6, 5]	15	0	0	0	n/a	n/a	0.0	0	0	0	FR3	2	R1195E
911.459	3.017	979861	PROB	2.992	n/a	n/a	-999	0	8	[1, 6, 6]	13	0	0	0	n/a	n/a	0.0	0	0	0	FR3	2	R1195E
914.476	4.919	982878	PROB	4.919	n/a	n/a	-999	0	8	[4, 1, 9]	14	0	0	0	n/a	n/a	0.0	0	0	0	FR3	2	R1195E
919.395	0.015	987797	STOP	n/a	n/a	n/a	-999	0	8	[-999, -999, -999]	n/a	0	0	0	n/a	n/a	0.0	0	0	0	FR3	2	R1195E
919.41	0.6	987812	DISTRACT_END	n/a	n/a	n/a	-999	0	8	[0, 0, 0]	n/a	0	0	0	n/a	n/a	0.0	0	0	0	FR3	2	R1195E
920.01	0.5	988412	RETRIEVAL_ORIENT	n/a	n/a	n/a	-999	0	8	[0, 0, 0]	n/a	0	0	0	n/a	n/a	0.0	0	0	0	FR3	2	R1195E
920.528	2.814	988930	REC_START	n/a	n/a	n/a	-999	0	8	[0, 0, 0]	n/a	0	0	0	n/a	n/a	0.0	0	0	0	FR3	2	R1195E
923.342	1.945	991744	REC_WORD	2.814	n/a	CAR	1	1	8	[0, 0, 0]	n/a	0	0	0	n/a	n/a	0.0	0	0	0	FR3	2	R1195E
925.287	1.899	993689	REC_WORD	4.759	n/a	HORSE	2	1	8	[0, 0, 0]	n/a	0	0	0	n/a	n/a	0.0	0	0	0	FR3	2	R1195E
927.186	2.096	995588	REC_WORD	6.658	n/a	SHIP	3	1	8	[0, 0, 0]	n/a	0	0	0	n/a	n/a	0.0	0	0	0	FR3	2	R1195E
929.282	2.401	997684	REC_WORD	8.754	n/a	SAIL	12	1	8	[0, 0, 0]	n/a	0	0	0	n/a	n/a	0.0	0	0	0	FR3	2	R1195E
931.683	1.834	1000084	REC_WORD	11.155	n/a	SUN	8	1	8	[0, 0, 0]	n/a	0	0	0	n/a	n/a	0.0	0	0	0	FR3	2	R1195E
933.517	17.02	1001918	REC_WORD	12.989	n/a	STORM	7	1	8	[0, 0, 0]	n/a	0	0	0	n/a	n/a	0.0	0	0	0	FR3	2	R1195E
950.537	6.146	1018938	REC_END	n/a	n/a	n/a	-999	0	8	[0, 0, 0]	n/a	0	0	0	n/a	n/a	0.0	0	0	0	FR3	2	R1195E
956.683	0.5	1025084	TRIAL	n/a	n/a	n/a	-999	0	9	[0, 0, 0]	n/a	0	1	0	n/a	n/a	0.0	0	0	0	FR3	2	R1195E
957.183	10.0	1025584	COUNTDOWN_START	n/a	n/a	n/a	-999	0	9	[0, 0, 0]	n/a	0	1	0	n/a	n/a	0.0	0	0	0	FR3	2	R1195E
967.611	0.008	1036011	COUNTDOWN_END	n/a	n/a	n/a	-999	0	9	[0, 0, 0]	n/a	0	1	0	n/a	n/a	0.0	0	0	0	FR3	2	R1195E
967.619	1.6	1036019	ORIENT	n/a	n/a	n/a	-999	0	9	[0, 0, 0]	n/a	0	1	0	n/a	n/a	0.0	0	0	0	FR3	2	R1195E
969.236	1.933	1037636	ORIENT_OFF	n/a	n/a	n/a	-999	0	9	[0, 0, 0]	n/a	0	1	0	n/a	n/a	0.0	0	0	0	FR3	2	R1195E
971.169	1.6	1039569	WORD	n/a	wordpools/wordpool.txt	DOLL	1	1	9	[0, 0, 0]	n/a	0	1	0	n/a	n/a	0.0	0	0	0	FR3	2	R1195E
972.708	0.0	1041108	STIM_ON	n/a	n/a	DOLL	1	1	9	[0, 0, 0]	n/a	1	1	500	3LD8	3LD9	1000.0	200	100	300	FR3	2	R1195E
972.786	0.422	1041186	WORD_OFF	n/a	n/a	DOLL	1	0	9	[0, 0, 0]	n/a	1	1	500	3LD8	3LD9	1000.0	200	100	300	FR3	2	R1195E
973.208	0.578	1041608	STIM_OFF	n/a	n/a	n/a	1	0	9	[0, 0, 0]	n/a	0	1	500	3LD8	3LD9	1000.0	200	100	300	FR3	2	R1195E
973.786	1.6	1042186	WORD	n/a	wordpools/wordpool.txt	LIP	2	1	9	[0, 0, 0]	n/a	0	1	0	n/a	n/a	0.0	0	0	0	FR3	2	R1195E
975.403	0.867	1043803	WORD_OFF	n/a	n/a	LIP	2	0	9	[0, 0, 0]	n/a	0	1	0	n/a	n/a	0.0	0	0	0	FR3	2	R1195E
976.27	1.6	1044670	WORD	n/a	wordpools/wordpool.txt	DESK	3	1	9	[0, 0, 0]	n/a	0	1	0	n/a	n/a	0.0	0	0	0	FR3	2	R1195E
977.887	0.8	1046287	WORD_OFF	n/a	n/a	DESK	3	0	9	[0, 0, 0]	n/a	0	1	0	n/a	n/a	0.0	0	0	0	FR3	2	R1195E
978.687	1.6	1047087	WORD	n/a	wordpools/wordpool.txt	MUG	4	1	9	[0, 0, 0]	n/a	0	1	0	n/a	n/a	0.0	0	0	0	FR3	2	R1195E
980.227	0.0	1048627	STIM_ON	n/a	n/a	MUG	4	1	9	[0, 0, 0]	n/a	1	1	500	3LD8	3LD9	1000.0	200	100	300	FR3	2	R1195E
980.304	0.423	1048704	WORD_OFF	n/a	n/a	MUG	4	0	9	[0, 0, 0]	n/a	1	1	500	3LD8	3LD9	1000.0	200	100	300	FR3	2	R1195E
980.727	0.46	1049127	STIM_OFF	n/a	n/a	n/a	4	0	9	[0, 0, 0]	n/a	0	1	500	3LD8	3LD9	1000.0	200	100	300	FR3	2	R1195E
981.187	1.6	1049587	WORD	n/a	wordpools/wordpool.txt	CHAIR	5	0	9	[0, 0, 0]	n/a	0	1	0	n/a	n/a	0.0	0	0	0	FR3	2	R1195E
982.805	0.867	1051205	WORD_OFF	n/a	n/a	CHAIR	5	0	9	[0, 0, 0]	n/a	0	1	0	n/a	n/a	0.0	0	0	0	FR3	2	R1195E
983.672	1.6	1052072	WORD	n/a	wordpools/wordpool.txt	BEAK	6	0	9	[0, 0, 0]	n/a	0	1	0	n/a	n/a	0.0	0	0	0	FR3	2	R1195E
985.288	0.901	1053687	WORD_OFF	n/a	n/a	BEAK	6	0	9	[0, 0, 0]	n/a	0	1	0	n/a	n/a	0.0	0	0	0	FR3	2	R1195E
986.189	1.6	1054588	WORD	n/a	wordpools/wordpool.txt	PANTS	7	1	9	[0, 0, 0]	n/a	0	1	0	n/a	n/a	0.0	0	0	0	FR3	2	R1195E
987.729	0.0	1056128	STIM_ON	n/a	n/a	PANTS	7	1	9	[0, 0, 0]	n/a	1	1	500	3LD8	3LD9	1000.0	200	100	300	FR3	2	R1195E
987.806	0.423	1056205	WORD_OFF	n/a	n/a	PANTS	7	0	9	[0, 0, 0]	n/a	1	1	500	3LD8	3LD9	1000.0	200	100	300	FR3	2	R1195E
988.229	0.56	1056628	STIM_OFF	n/a	n/a	n/a	7	0	9	[0, 0, 0]	n/a	0	1	500	3LD8	3LD9	1000.0	200	100	300	FR3	2	R1195E
988.789	1.6	1057188	WORD	n/a	wordpools/wordpool.txt	NOSE	8	0	9	[0, 0, 0]	n/a	0	1	0	n/a	n/a	0.0	0	0	0	FR3	2	R1195E
990.331	0.0	1058730	STIM_ON	n/a	n/a	NOSE	8	0	9	[0, 0, 0]	n/a	1	1	500	3LD8	3LD9	1000.0	200	100	300	FR3	2	R1195E
990.406	0.425	1058805	WORD_OFF	n/a	n/a	NOSE	8	0	9	[0, 0, 0]	n/a	1	1	500	3LD8	3LD9	1000.0	200	100	300	FR3	2	R1195E
990.831	0.442	1059230	STIM_OFF	n/a	n/a	n/a	8	0	9	[0, 0, 0]	n/a	0	1	500	3LD8	3LD9	1000.0	200	100	300	FR3	2	R1195E
991.273	1.6	1059672	WORD	n/a	wordpools/wordpool.txt	JEEP	9	0	9	[0, 0, 0]	n/a	0	1	0	n/a	n/a	0.0	0	0	0	FR3	2	R1195E
992.89	1.0	1061289	WORD_OFF	n/a	n/a	JEEP	9	0	9	[0, 0, 0]	n/a	0	1	0	n/a	n/a	0.0	0	0	0	FR3	2	R1195E
993.89	1.6	1062289	WORD	n/a	wordpools/wordpool.txt	MAT	10	0	9	[0, 0, 0]	n/a	0	1	0	n/a	n/a	0.0	0	0	0	FR3	2	R1195E
995.43	0.0	1063829	STIM_ON	n/a	n/a	MAT	10	0	9	[0, 0, 0]	n/a	1	1	500	3LD8	3LD9	1000.0	200	100	300	FR3	2	R1195E
995.507	0.423	1063906	WORD_OFF	n/a	n/a	MAT	10	0	9	[0, 0, 0]	n/a	1	1	500	3LD8	3LD9	1000.0	200	100	300	FR3	2	R1195E
995.93	0.377	1064329	STIM_OFF	n/a	n/a	n/a	10	0	9	[0, 0, 0]	n/a	0	1	500	3LD8	3LD9	1000.0	200	100	300	FR3	2	R1195E
996.307	1.6	1064706	WORD	n/a	wordpools/wordpool.txt	BOX	11	1	9	[0, 0, 0]	n/a	0	1	0	n/a	n/a	0.0	0	0	0	FR3	2	R1195E
997.852	0.0	1066251	STIM_ON	n/a	n/a	BOX	11	1	9	[0, 0, 0]	n/a	1	1	500	3LD8	3LD9	1000.0	200	100	300	FR3	2	R1195E
997.924	0.428	1066323	WORD_OFF	n/a	n/a	BOX	11	0	9	[0, 0, 0]	n/a	1	1	500	3LD8	3LD9	1000.0	200	100	300	FR3	2	R1195E
998.352	0.439	1066751	STIM_OFF	n/a	n/a	n/a	11	0	9	[0, 0, 0]	n/a	0	1	500	3LD8	3LD9	1000.0	200	100	300	FR3	2	R1195E
998.791	1.6	1067190	WORD	n/a	wordpools/wordpool.txt	TOAST	12	0	9	[0, 0, 0]	n/a	0	1	0	n/a	n/a	0.0	0	0	0	FR3	2	R1195E
1000.335	0.0	1068734	STIM_ON	n/a	n/a	TOAST	12	0	9	[0, 0, 0]	n/a	1	1	500	3LD8	3LD9	1000.0	200	100	300	FR3	2	R1195E
1000.408	0.0	1068807	WORD_OFF	n/a	n/a	TOAST	12	0	9	[0, 0, 0]	n/a	1	1	500	3LD8	3LD9	1000.0	200	100	300	FR3	2	R1195E
1000.408	0.0	1068807	DISTRACT_START	n/a	n/a	n/a	-999	0	9	[0, 0, 0]	n/a	1	1	500	3LD8	3LD9	1000.0	200	100	300	FR3	2	R1195E
1000.408	0.016	1068807	START	n/a	n/a	n/a	-999	0	9	[-999, -999, -999]	n/a	0	1	0	n/a	n/a	0.0	0	0	0	FR3	2	R1195E
1000.424	0.411	1068823	PROB	4.295	n/a	n/a	-999	0	9	[2, 4, 7]	13	0	1	0	n/a	n/a	0.0	0	0	0	FR3	2	R1195E
1000.835	3.907	1069234	STIM_OFF	n/a	n/a	n/a	-999	0	9	[0, 0, 0]	n/a	0	1	500	3LD8	3LD9	1000.0	200	100	300	FR3	2	R1195E
1004.742	3.8	1073141	PROB	3.778	n/a	n/a	-999	0	9	[1, 7, 4]	12	0	1	0	n/a	n/a	0.0	0	0	0	FR3	2	R1195E
1008.542	3.301	1076941	PROB	3.274	n/a	n/a	-999	0	9	[6, 4, 5]	15	0	1	0	n/a	n/a	0.0	0	0	0	FR3	2	R1195E
1011.843	3.967	1080241	PROB	3.94	n/a	n/a	-999	0	9	[7, 1, 9]	17	0	1	0	n/a	n/a	0.0	0	0	0	FR3	2	R1195E
1015.81	3.551	1084208	PROB	3.526	n/a	n/a	-999	0	9	[9, 2, 8]	19	0	1	0	n/a	n/a	0.0	0	0	0	FR3	2	R1195E
1019.361	3.727	1087759	PROB	3.727	n/a	n/a	-999	0	9	[4, 9, 6]	19	0	1	0	n/a	n/a	0.0	0	0	0	FR3	2	R1195E
1023.088	0.007	1091486	STOP	n/a	n/a	n/a	-999	0	9	[-999, -999, -999]	n/a	0	1	0	n/a	n/a	0.0	0	0	0	FR3	2	R1195E
1023.095	0.517	1091493	DISTRACT_END	n/a	n/a	n/a	-999	0	9	[0, 0, 0]	n/a	0	1	0	n/a	n/a	0.0	0	0	0	FR3	2	R1195E
1023.612	0.5	1092010	RETRIEVAL_ORIENT	n/a	n/a	n/a	-999	0	9	[0, 0, 0]	n/a	0	1	0	n/a	n/a	0.0	0	0	0	FR3	2	R1195E
1024.129	1.124	1092527	REC_START	n/a	n/a	n/a	-999	0	9	[0, 0, 0]	n/a	0	1	0	n/a	n/a	0.0	0	0	0	FR3	2	R1195E
1025.253	2.314	1093651	REC_WORD_VV	1.124	n/a	<>	-999	0	9	[0, 0, 0]	n/a	0	1	0	n/a	n/a	0.0	0	0	0	FR3	2	R1195E
1027.567	2.619	1095965	REC_WORD	3.438	n/a	DOLL	1	1	9	[0, 0, 0]	n/a	0	1	0	n/a	n/a	0.0	0	0	0	FR3	2	R1195E
1030.186	2.483	1098584	REC_WORD	6.057	n/a	LIP	2	1	9	[0, 0, 0]	n/a	0	1	0	n/a	n/a	0.0	0	0	0	FR3	2	R1195E
1032.669	1.982	1101067	REC_WORD	8.54	n/a	DESK	3	1	9	[0, 0, 0]	n/a	0	1	0	n/a	n/a	0.0	0	0	0	FR3	2	R1195E
1034.651	2.489	1103049	REC_WORD	10.522	n/a	MUG	4	1	9	[0, 0, 0]	n/a	0	1	0	n/a	n/a	0.0	0	0	0	FR3	2	R1195E
1037.14	3.143	1105537	REC_WORD	13.011	n/a	BOX	11	1	9	[0, 0, 0]	n/a	0	1	0	n/a	n/a	0.0	0	0	0	FR3	2	R1195E
1040.283	1.91	1108680	REC_WORD	16.154	n/a	PANTS	7	1	9	[0, 0, 0]	n/a	0	1	0	n/a	n/a	0.0	0	0	0	FR3	2	R1195E
1042.193	2.099	1110590	REC_WORD	18.064	n/a	LEG	-999	0	9	[0, 0, 0]	n/a	0	1	0	n/a	n/a	0.0	0	0	0	FR3	2	R1195E
1044.292	1.782	1112689	REC_WORD	20.163	n/a	SOCK	-999	0	9	[0, 0, 0]	n/a	0	1	0	n/a	n/a	0.0	0	0	0	FR3	2	R1195E
1046.074	8.065	1114471	REC_WORD	21.945	n/a	SLIME	-999	0	9	[0, 0, 0]	n/a	0	1	0	n/a	n/a	0.0	0	0	0	FR3	2	R1195E
1054.139	5.296	1122536	REC_END	n/a	n/a	n/a	-999	0	9	[0, 0, 0]	n/a	0	1	0	n/a	n/a	0.0	0	0	0	FR3	2	R1195E
1059.435	0.5	1127832	TRIAL	n/a	n/a	n/a	-999	0	10	[0, 0, 0]	n/a	0	0	0	n/a	n/a	0.0	0	0	0	FR3	2	R1195E
1059.935	10.0	1128332	COUNTDOWN_START	n/a	n/a	n/a	-999	0	10	[0, 0, 0]	n/a	0	0	0	n/a	n/a	0.0	0	0	0	FR3	2	R1195E
1070.363	0.007	1138759	COUNTDOWN_END	n/a	n/a	n/a	-999	0	10	[0, 0, 0]	n/a	0	0	0	n/a	n/a	0.0	0	0	0	FR3	2	R1195E
1070.37	1.6	1138766	ORIENT	n/a	n/a	n/a	-999	0	10	[0, 0, 0]	n/a	0	0	0	n/a	n/a	0.0	0	0	0	FR3	2	R1195E
1071.987	2.084	1140383	ORIENT_OFF	n/a	n/a	n/a	-999	0	10	[0, 0, 0]	n/a	0	0	0	n/a	n/a	0.0	0	0	0	FR3	2	R1195E
1074.071	1.6	1142467	WORD	n/a	wordpools/wordpool.txt	TOAD	1	1	10	[0, 0, 0]	n/a	0	0	0	n/a	n/a	0.0	0	0	0	FR3	2	R1195E
1075.688	0.883	1144084	WORD_OFF	n/a	n/a	TOAD	1	0	10	[0, 0, 0]	n/a	0	0	0	n/a	n/a	0.0	0	0	0	FR3	2	R1195E
1076.571	1.6	1144967	WORD	n/a	wordpools/wordpool.txt	TRASH	2	0	10	[0, 0, 0]	n/a	0	0	0	n/a	n/a	0.0	0	0	0	FR3	2	R1195E
1078.188	0.85	1146584	WORD_OFF	n/a	n/a	TRASH	2	0	10	[0, 0, 0]	n/a	0	0	0	n/a	n/a	0.0	0	0	0	FR3	2	R1195E
1079.038	1.6	1147434	WORD	n/a	wordpools/wordpool.txt	POLE	3	0	10	[0, 0, 0]	n/a	0	0	0	n/a	n/a	0.0	0	0	0	FR3	2	R1195E
1080.655	0.984	1149051	WORD_OFF	n/a	n/a	POLE	3	0	10	[0, 0, 0]	n/a	0	0	0	n/a	n/a	0.0	0	0	0	FR3	2	R1195E
1081.639	1.6	1150035	WORD	n/a	wordpools/wordpool.txt	MOON	4	0	10	[0, 0, 0]	n/a	0	0	0	n/a	n/a	0.0	0	0	0	FR3	2	R1195E
1083.256	0.816	1151652	WORD_OFF	n/a	n/a	MOON	4	0	10	[0, 0, 0]	n/a	0	0	0	n/a	n/a	0.0	0	0	0	FR3	2	R1195E
1084.072	1.6	1152468	WORD	n/a	wordpools/wordpool.txt	SALT	5	0	10	[0, 0, 0]	n/a	0	0	0	n/a	n/a	0.0	0	0	0	FR3	2	R1195E
1085.689	0.784	1154085	WORD_OFF	n/a	n/a	SALT	5	0	10	[0, 0, 0]	n/a	0	0	0	n/a	n/a	0.0	0	0	0	FR3	2	R1195E
1086.473	1.6	1154869	WORD	n/a	wordpools/wordpool.txt	BRICK	6	0	10	[0, 0, 0]	n/a	0	0	0	n/a	n/a	0.0	0	0	0	FR3	2	R1195E
1088.09	0.833	1156486	WORD_OFF	n/a	n/a	BRICK	6	0	10	[0, 0, 0]	n/a	0	0	0	n/a	n/a	0.0	0	0	0	FR3	2	R1195E
1088.923	1.6	1157319	WORD	n/a	wordpools/wordpool.txt	WHALE	7	0	10	[0, 0, 0]	n/a	0	0	0	n/a	n/a	0.0	0	0	0	FR3	2	R1195E
1090.54	0.917	1158935	WORD_OFF	n/a	n/a	WHALE	7	0	10	[0, 0, 0]	n/a	0	0	0	n/a	n/a	0.0	0	0	0	FR3	2	R1195E
1091.457	1.6	1159852	WORD	n/a	wordpools/wordpool.txt	CAPE	8	1	10	[0, 0, 0]	n/a	0	0	0	n/a	n/a	0.0	0	0	0	FR3	2	R1195E
1093.074	0.967	1161469	WORD_OFF	n/a	n/a	CAPE	8	0	10	[0, 0, 0]	n/a	0	0	0	n/a	n/a	0.0	0	0	0	FR3	2	R1195E
1094.041	1.6	1162436	WORD	n/a	wordpools/wordpool.txt	WOLF	9	0	10	[0, 0, 0]	n/a	0	0	0	n/a	n/a	0.0	0	0	0	FR3	2	R1195E
1095.658	0.95	1164053	WORD_OFF	n/a	n/a	WOLF	9	0	10	[0, 0, 0]	n/a	0	0	0	n/a	n/a	0.0	0	0	0	FR3	2	R1195E
1096.608	1.6	1165003	WORD	n/a	wordpools/wordpool.txt	CORD	10	0	10	[0, 0, 0]	n/a	0	0	0	n/a	n/a	0.0	0	0	0	FR3	2	R1195E
1098.225	0.85	1166620	WORD_OFF	n/a	n/a	CORD	10	0	10	[0, 0, 0]	n/a	0	0	0	n/a	n/a	0.0	0	0	0	FR3	2	R1195E
1099.075	1.6	1167470	WORD	n/a	wordpools/wordpool.txt	EGG	11	1	10	[0, 0, 0]	n/a	0	0	0	n/a	n/a	0.0	0	0	0	FR3	2	R1195E
1100.692	0.85	1169087	WORD_OFF	n/a	n/a	EGG	11	0	10	[0, 0, 0]	n/a	0	0	0	n/a	n/a	0.0	0	0	0	FR3	2	R1195E
1101.542	1.6	1169937	WORD	n/a	wordpools/wordpool.txt	TEETH	12	1	10	[0, 0, 0]	n/a	0	0	0	n/a	n/a	0.0	0	0	0	FR3	2	R1195E
1103.159	0.0	1171554	WORD_OFF	n/a	n/a	TEETH	12	0	10	[0, 0, 0]	n/a	0	0	0	n/a	n/a	0.0	0	0	0	FR3	2	R1195E
1103.159	0.001	1171554	DISTRACT_START	n/a	n/a	n/a	-999	0	10	[0, 0, 0]	n/a	0	0	0	n/a	n/a	0.0	0	0	0	FR3	2	R1195E
1103.16	0.016	1171555	START	n/a	n/a	n/a	-999	0	10	[-999, -999, -999]	n/a	0	0	0	n/a	n/a	0.0	0	0	0	FR3	2	R1195E
1103.176	4.167	1171571	PROB	4.136	n/a	n/a	-999	0	10	[9, 2, 3]	14	0	0	0	n/a	n/a	0.0	0	0	0	FR3	2	R1195E
1107.343	3.934	1175738	PROB	3.905	n/a	n/a	-999	0	10	[2, 3, 9]	14	0	0	0	n/a	n/a	0.0	0	0	0	FR3	2	R1195E
1111.277	3.884	1179672	PROB	3.851	n/a	n/a	-999	0	10	[1, 4, 9]	14	0	0	0	n/a	n/a	0.0	0	0	0	FR3	2	R1195E
1115.161	4.701	1183556	PROB	4.663	n/a	n/a	-999	0	10	[2, 5, 3]	10	0	0	0	n/a	n/a	0.0	0	0	0	FR3	2	R1195E
1119.862	4.465	1188256	PROB	4.465	n/a	n/a	-999	0	10	[3, 2, 6]	11	0	0	0	n/a	n/a	0.0	0	0	0	FR3	2	R1195E
1124.327	0.019	1192721	STOP	n/a	n/a	n/a	-999	0	10	[-999, -999, -999]	n/a	0	0	0	n/a	n/a	0.0	0	0	0	FR3	2	R1195E
1124.346	0.684	1192740	DISTRACT_END	n/a	n/a	n/a	-999	0	10	[0, 0, 0]	n/a	0	0	0	n/a	n/a	0.0	0	0	0	FR3	2	R1195E
1125.03	0.5	1193424	RETRIEVAL_ORIENT	n/a	n/a	n/a	-999	0	10	[0, 0, 0]	n/a	0	0	0	n/a	n/a	0.0	0	0	0	FR3	2	R1195E
1125.547	2.778	1193941	REC_START	n/a	n/a	n/a	-999	0	10	[0, 0, 0]	n/a	0	0	0	n/a	n/a	0.0	0	0	0	FR3	2	R1195E
1128.325	1.919	1196719	REC_WORD	2.778	n/a	CAPE	8	1	10	[0, 0, 0]	n/a	0	0	0	n/a	n/a	0.0	0	0	0	FR3	2	R1195E
1130.244	2.42	1198638	REC_WORD	4.697	n/a	TOAD	1	1	10	[0, 0, 0]	n/a	0	0	0	n/a	n/a	0.0	0	0	0	FR3	2	R1195E
1132.664	1.581	1201058	REC_WORD	7.117	n/a	TEETH	12	1	10	[0, 0, 0]	n/a	0	0	0	n/a	n/a	0.0	0	0	0	FR3	2	R1195E
1134.245	7.697	1202639	REC_WORD	8.698	n/a	EGG	11	1	10	[0, 0, 0]	n/a	0	0	0	n/a	n/a	0.0	0	0	0	FR3	2	R1195E
1141.942	10.497	1210336	REC_WORD	16.395	n/a	CAPE	8	1	10	[0, 0, 0]	n/a	0	0	0	n/a	n/a	0.0	0	0	0	FR3	2	R1195E
1152.439	3.116	1220832	REC_WORD	26.892	n/a	TOAST	-999	0	10	[0, 0, 0]	n/a	0	0	0	n/a	n/a	0.0	0	0	0	FR3	2	R1195E
1155.555	5.498	1223948	REC_END	n/a	n/a	n/a	-999	0	10	[0, 0, 0]	n/a	0	0	0	n/a	n/a	0.0	0	0	0	FR3	2	R1195E
1161.053	0.5	1229446	TRIAL	n/a	n/a	n/a	-999	0	11	[0, 0, 0]	n/a	0	0	0	n/a	n/a	0.0	0	0	0	FR3	2	R1195E
1161.553	10.0	1229946	COUNTDOWN_START	n/a	n/a	n/a	-999	0	11	[0, 0, 0]	n/a	0	0	0	n/a	n/a	0.0	0	0	0	FR3	2	R1195E
1171.981	0.007	1240373	COUNTDOWN_END	n/a	n/a	n/a	-999	0	11	[0, 0, 0]	n/a	0	0	0	n/a	n/a	0.0	0	0	0	FR3	2	R1195E
1171.988	1.6	1240380	ORIENT	n/a	n/a	n/a	-999	0	11	[0, 0, 0]	n/a	0	0	0	n/a	n/a	0.0	0	0	0	FR3	2	R1195E
1173.605	2.167	1241997	ORIENT_OFF	n/a	n/a	n/a	-999	0	11	[0, 0, 0]	n/a	0	0	0	n/a	n/a	0.0	0	0	0	FR3	2	R1195E
1175.772	1.6	1244164	WORD	n/a	wordpools/wordpool.txt	POOL	1	1	11	[0, 0, 0]	n/a	0	0	0	n/a	n/a	0.0	0	0	0	FR3	2	R1195E
1177.389	0.85	1245781	WORD_OFF	n/a	n/a	POOL	1	0	11	[0, 0, 0]	n/a	0	0	0	n/a	n/a	0.0	0	0	0	FR3	2	R1195E
1178.239	1.6	1246631	WORD	n/a	wordpools/wordpool.txt	PIG	2	0	11	[0, 0, 0]	n/a	0	0	0	n/a	n/a	0.0	0	0	0	FR3	2	R1195E
1179.856	0.833	1248248	WORD_OFF	n/a	n/a	PIG	2	0	11	[0, 0, 0]	n/a	0	0	0	n/a	n/a	0.0	0	0	0	FR3	2	R1195E
1180.689	1.6	1249081	WORD	n/a	wordpools/wordpool.txt	LAKE	3	1	11	[0, 0, 0]	n/a	0	0	0	n/a	n/a	0.0	0	0	0	FR3	2	R1195E
1182.306	1.0	1250698	WORD_OFF	n/a	n/a	LAKE	3	0	11	[0, 0, 0]	n/a	0	0	0	n/a	n/a	0.0	0	0	0	FR3	2	R1195E
1183.306	1.6	1251698	WORD	n/a	wordpools/wordpool.txt	THREAD	4	1	11	[0, 0, 0]	n/a	0	0	0	n/a	n/a	0.0	0	0	0	FR3	2	R1195E
1184.923	0.95	1253315	WORD_OFF	n/a	n/a	THREAD	4	0	11	[0, 0, 0]	n/a	0	0	0	n/a	n/a	0.0	0	0	0	FR3	2	R1195E
1185.873	1.6	1254265	WORD	n/a	wordpools/wordpool.txt	SNAKE	5	1	11	[0, 0, 0]	n/a	0	0	0	n/a	n/a	0.0	0	0	0	FR3	2	R1195E
1187.491	0.883	1255883	WORD_OFF	n/a	n/a	SNAKE	5	0	11	[0, 0, 0]	n/a	0	0	0	n/a	n/a	0.0	0	0	0	FR3	2	R1195E
1188.374	1.6	1256766	WORD	n/a	wordpools/wordpool.txt	FOAM	6	1	11	[0, 0, 0]	n/a	0	0	0	n/a	n/a	0.0	0	0	0	FR3	2	R1195E
1189.991	0.916	1258383	WORD_OFF	n/a	n/a	FOAM	6	0	11	[0, 0, 0]	n/a	0	0	0	n/a	n/a	0.0	0	0	0	FR3	2	R1195E
1190.907	1.6	1259299	WORD	n/a	wordpools/wordpool.txt	CORN	7	0	11	[0, 0, 0]	n/a	0	0	0	n/a	n/a	0.0	0	0	0	FR3	2	R1195E
1192.525	0.967	1260917	WORD_OFF	n/a	n/a	CORN	7	0	11	[0, 0, 0]	n/a	0	0	0	n/a	n/a	0.0	0	0	0	FR3	2	R1195E
1193.492	1.6	1261884	WORD	n/a	wordpools/wordpool.txt	SPEAR	8	0	11	[0, 0, 0]	n/a	0	0	0	n/a	n/a	0.0	0	0	0	FR3	2	R1195E
1195.108	0.834	1263500	WORD_OFF	n/a	n/a	SPEAR	8	0	11	[0, 0, 0]	n/a	0	0	0	n/a	n/a	0.0	0	0	0	FR3	2	R1195E
1195.942	1.6	1264333	WORD	n/a	wordpools/wordpool.txt	SOAP	9	0	11	[0, 0, 0]	n/a	0	0	0	n/a	n/a	0.0	0	0	0	FR3	2	R1195E
1197.559	0.917	1265950	WORD_OFF	n/a	n/a	SOAP	9	0	11	[0, 0, 0]	n/a	0	0	0	n/a	n/a	0.0	0	0	0	FR3	2	R1195E
1198.476	1.6	1266867	WORD	n/a	wordpools/wordpool.txt	SHARK	10	0	11	[0, 0, 0]	n/a	0	0	0	n/a	n/a	0.0	0	0	0	FR3	2	R1195E
1200.093	0.799	1268484	WORD_OFF	n/a	n/a	SHARK	10	0	11	[0, 0, 0]	n/a	0	0	0	n/a	n/a	0.0	0	0	0	FR3	2	R1195E
1200.892	1.6	1269283	WORD	n/a	wordpools/wordpool.txt	SHEEP	11	1	11	[0, 0, 0]	n/a	0	0	0	n/a	n/a	0.0	0	0	0	FR3	2	R1195E
1202.51	0.95	1270901	WORD_OFF	n/a	n/a	SHEEP	11	0	11	[0, 0, 0]	n/a	0	0	0	n/a	n/a	0.0	0	0	0	FR3	2	R1195E
1203.46	1.6	1271851	WORD	n/a	wordpools/wordpool.txt	ROPE	12	1	11	[0, 0, 0]	n/a	0	0	0	n/a	n/a	0.0	0	0	0	FR3	2	R1195E
1205.077	0.0	1273468	WORD_OFF	n/a	n/a	ROPE	12	0	11	[0, 0, 0]	n/a	0	0	0	n/a	n/a	0.0	0	0	0	FR3	2	R1195E
1205.077	0.0	1273468	DISTRACT_START	n/a	n/a	n/a	-999	0	11	[0, 0, 0]	n/a	0	0	0	n/a	n/a	0.0	0	0	0	FR3	2	R1195E
1205.077	0.016	1273468	START	n/a	n/a	n/a	-999	0	11	[-999, -999, -999]	n/a	0	0	0	n/a	n/a	0.0	0	0	0	FR3	2	R1195E
1205.093	5.418	1273484	PROB	5.39	n/a	n/a	-999	0	11	[8, 6, 2]	16	0	0	0	n/a	n/a	0.0	0	0	0	FR3	2	R1195E
1210.511	3.484	1278902	PROB	3.453	n/a	n/a	-999	0	11	[7, 8, 5]	20	0	0	0	n/a	n/a	0.0	0	0	0	FR3	2	R1195E
1213.995	3.867	1282386	PROB	3.834	n/a	n/a	-999	0	11	[2, 6, 3]	11	0	0	0	n/a	n/a	0.0	0	0	0	FR3	2	R1195E
1217.862	3.651	1286253	PROB	3.623	n/a	n/a	-999	0	11	[5, 1, 4]	10	0	0	0	n/a	n/a	0.0	0	0	0	FR3	2	R1195E
1221.513	9.227	1289904	PROB	9.227	n/a	n/a	-999	0	11	[6, 6, 7]	19	0	0	0	n/a	n/a	0.0	0	0	0	FR3	2	R1195E
1230.74	0.008	1299130	STOP	n/a	n/a	n/a	-999	0	11	[-999, -999, -999]	n/a	0	0	0	n/a	n/a	0.0	0	0	0	FR3	2	R1195E
1230.748	0.6	1299138	DISTRACT_END	n/a	n/a	n/a	-999	0	11	[0, 0, 0]	n/a	0	0	0	n/a	n/a	0.0	0	0	0	FR3	2	R1195E
1231.348	0.5	1299738	RETRIEVAL_ORIENT	n/a	n/a	n/a	-999	0	11	[0, 0, 0]	n/a	0	0	0	n/a	n/a	0.0	0	0	0	FR3	2	R1195E
1231.866	2.276	1300256	REC_START	n/a	n/a	n/a	-999	0	11	[0, 0, 0]	n/a	0	0	0	n/a	n/a	0.0	0	0	0	FR3	2	R1195E
1234.142	2.988	1302532	REC_WORD_VV	2.276	n/a	<>	-999	0	11	[0, 0, 0]	n/a	0	0	0	n/a	n/a	0.0	0	0	0	FR3	2	R1195E
1237.13	3.553	1305520	REC_WORD	5.264	n/a	SHEEP	11	1	11	[0, 0, 0]	n/a	0	0	0	n/a	n/a	0.0	0	0	0	FR3	2	R1195E
1240.683	2.382	1309073	REC_WORD	8.817	n/a	SNAKE	5	1	11	[0, 0, 0]	n/a	0	0	0	n/a	n/a	0.0	0	0	0	FR3	2	R1195E
1243.065	3.48	1311455	REC_WORD	11.199	n/a	THREAD	4	1	11	[0, 0, 0]	n/a	0	0	0	n/a	n/a	0.0	0	0	0	FR3	2	R1195E
1246.545	2.646	1314935	REC_WORD	14.679	n/a	FOAM	6	1	11	[0, 0, 0]	n/a	0	0	0	n/a	n/a	0.0	0	0	0	FR3	2	R1195E
1249.191	2.434	1317580	REC_WORD	17.325	n/a	POOL	1	1	11	[0, 0, 0]	n/a	0	0	0	n/a	n/a	0.0	0	0	0	FR3	2	R1195E
1251.625	7.064	1320014	REC_WORD	19.759	n/a	LAKE	3	1	11	[0, 0, 0]	n/a	0	0	0	n/a	n/a	0.0	0	0	0	FR3	2	R1195E
1258.689	3.187	1327078	REC_WORD	26.823	n/a	ROPE	12	1	11	[0, 0, 0]	n/a	0	0	0	n/a	n/a	0.0	0	0	0	FR3	2	R1195E
1261.876	5.762	1330265	REC_END	n/a	n/a	n/a	-999	0	11	[0, 0, 0]	n/a	0	0	0	n/a	n/a	0.0	0	0	0	FR3	2	R1195E
1267.638	0.5	1336027	TRIAL	n/a	n/a	n/a	-999	0	12	[0, 0, 0]	n/a	0	0	0	n/a	n/a	0.0	0	0	0	FR3	2	R1195E
1268.138	10.0	1336527	COUNTDOWN_START	n/a	n/a	n/a	-999	0	12	[0, 0, 0]	n/a	0	0	0	n/a	n/a	0.0	0	0	0	FR3	2	R1195E
1278.566	0.007	1346954	COUNTDOWN_END	n/a	n/a	n/a	-999	0	12	[0, 0, 0]	n/a	0	0	0	n/a	n/a	0.0	0	0	0	FR3	2	R1195E
1278.573	1.6	1346961	ORIENT	n/a	n/a	n/a	-999	0	12	[0, 0, 0]	n/a	0	0	0	n/a	n/a	0.0	0	0	0	FR3	2	R1195E
1280.19	2.334	1348578	ORIENT_OFF	n/a	n/a	n/a	-999	0	12	[0, 0, 0]	n/a	0	0	0	n/a	n/a	0.0	0	0	0	FR3	2	R1195E
1282.524	1.6	1350912	WORD	n/a	wordpools/wordpool.txt	BRUSH	1	1	12	[0, 0, 0]	n/a	0	0	0	n/a	n/a	0.0	0	0	0	FR3	2	R1195E
1284.141	0.8	1352529	WORD_OFF	n/a	n/a	BRUSH	1	0	12	[0, 0, 0]	n/a	0	0	0	n/a	n/a	0.0	0	0	0	FR3	2	R1195E
1284.941	1.6	1353329	WORD	n/a	wordpools/wordpool.txt	TOOTH	2	1	12	[0, 0, 0]	n/a	0	0	0	n/a	n/a	0.0	0	0	0	FR3	2	R1195E
1286.558	0.783	1354946	WORD_OFF	n/a	n/a	TOOTH	2	0	12	[0, 0, 0]	n/a	0	0	0	n/a	n/a	0.0	0	0	0	FR3	2	R1195E
1287.341	1.6	1355729	WORD	n/a	wordpools/wordpool.txt	CROW	3	0	12	[0, 0, 0]	n/a	0	0	0	n/a	n/a	0.0	0	0	0	FR3	2	R1195E
1288.958	0.983	1357346	WORD_OFF	n/a	n/a	CROW	3	0	12	[0, 0, 0]	n/a	0	0	0	n/a	n/a	0.0	0	0	0	FR3	2	R1195E
1289.941	1.6	1358329	WORD	n/a	wordpools/wordpool.txt	MOUSE	4	0	12	[0, 0, 0]	n/a	0	0	0	n/a	n/a	0.0	0	0	0	FR3	2	R1195E
1291.559	0.983	1359947	WORD_OFF	n/a	n/a	MOUSE	4	0	12	[0, 0, 0]	n/a	0	0	0	n/a	n/a	0.0	0	0	0	FR3	2	R1195E
1292.542	1.6	1360930	WORD	n/a	wordpools/wordpool.txt	SEAL	5	1	12	[0, 0, 0]	n/a	0	0	0	n/a	n/a	0.0	0	0	0	FR3	2	R1195E
1294.159	0.884	1362547	WORD_OFF	n/a	n/a	SEAL	5	0	12	[0, 0, 0]	n/a	0	0	0	n/a	n/a	0.0	0	0	0	FR3	2	R1195E
1295.043	1.6	1363431	WORD	n/a	wordpools/wordpool.txt	ELF	6	1	12	[0, 0, 0]	n/a	0	0	0	n/a	n/a	0.0	0	0	0	FR3	2	R1195E
1296.66	0.8	1365048	WORD_OFF	n/a	n/a	ELF	6	0	12	[0, 0, 0]	n/a	0	0	0	n/a	n/a	0.0	0	0	0	FR3	2	R1195E
1297.46	1.6	1365848	WORD	n/a	wordpools/wordpool.txt	PIT	7	0	12	[0, 0, 0]	n/a	0	0	0	n/a	n/a	0.0	0	0	0	FR3	2	R1195E
1299.077	0.866	1367465	WORD_OFF	n/a	n/a	PIT	7	0	12	[0, 0, 0]	n/a	0	0	0	n/a	n/a	0.0	0	0	0	FR3	2	R1195E
1299.943	1.6	1368331	WORD	n/a	wordpools/wordpool.txt	SHOE	8	0	12	[0, 0, 0]	n/a	0	0	0	n/a	n/a	0.0	0	0	0	FR3	2	R1195E
1301.56	1.001	1369948	WORD_OFF	n/a	n/a	SHOE	8	0	12	[0, 0, 0]	n/a	0	0	0	n/a	n/a	0.0	0	0	0	FR3	2	R1195E
1302.561	1.6	1370948	WORD	n/a	wordpools/wordpool.txt	FOX	9	0	12	[0, 0, 0]	n/a	0	0	0	n/a	n/a	0.0	0	0	0	FR3	2	R1195E
1304.177	0.934	1372564	WORD_OFF	n/a	n/a	FOX	9	0	12	[0, 0, 0]	n/a	0	0	0	n/a	n/a	0.0	0	0	0	FR3	2	R1195E
1305.111	1.6	1373498	WORD	n/a	wordpools/wordpool.txt	MOTH	10	0	12	[0, 0, 0]	n/a	0	0	0	n/a	n/a	0.0	0	0	0	FR3	2	R1195E
1306.728	0.9	1375115	WORD_OFF	n/a	n/a	MOTH	10	0	12	[0, 0, 0]	n/a	0	0	0	n/a	n/a	0.0	0	0	0	FR3	2	R1195E
1307.628	1.6	1376015	WORD	n/a	wordpools/wordpool.txt	WORM	11	0	12	[0, 0, 0]	n/a	0	0	0	n/a	n/a	0.0	0	0	0	FR3	2	R1195E
1309.245	0.883	1377632	WORD_OFF	n/a	n/a	WORM	11	0	12	[0, 0, 0]	n/a	0	0	0	n/a	n/a	0.0	0	0	0	FR3	2	R1195E
1310.128	1.6	1378515	WORD	n/a	wordpools/wordpool.txt	MOLE	12	1	12	[0, 0, 0]	n/a	0	0	0	n/a	n/a	0.0	0	0	0	FR3	2	R1195E
1311.746	0.0	1380133	DISTRACT_START	n/a	n/a	n/a	-999	0	12	[0, 0, 0]	n/a	0	0	0	n/a	n/a	0.0	0	0	0	FR3	2	R1195E
1311.746	0.0	1380133	WORD_OFF	n/a	n/a	MOLE	12	0	12	[0, 0, 0]	n/a	0	0	0	n/a	n/a	0.0	0	0	0	FR3	2	R1195E
1311.746	0.016	1380133	START	n/a	n/a	n/a	-999	0	12	[-999, -999, -999]	n/a	0	0	0	n/a	n/a	0.0	0	0	0	FR3	2	R1195E
1311.762	3.434	1380149	PROB	3.412	n/a	n/a	-999	0	12	[6, 4, 3]	13	0	0	0	n/a	n/a	0.0	0	0	0	FR3	2	R1195E
1315.196	7.418	1383583	PROB	7.381	n/a	n/a	-999	0	12	[8, 5, 1]	14	0	0	0	n/a	n/a	0.0	0	0	0	FR3	2	R1195E
1322.614	4.084	1391001	PROB	4.059	n/a	n/a	-999	0	12	[5, 2, 4]	11	0	0	0	n/a	n/a	0.0	0	0	0	FR3	2	R1195E
1326.698	4.418	1395085	PROB	4.383	n/a	n/a	-999	0	12	[3, 6, 8]	17	0	0	0	n/a	n/a	0.0	0	0	0	FR3	2	R1195E
1331.116	6.943	1399502	PROB	6.943	n/a	n/a	-999	0	12	[7, 5, 9]	21	0	0	0	n/a	n/a	0.0	0	0	0	FR3	2	R1195E
1338.059	0.008	1406445	STOP	n/a	n/a	n/a	-999	0	12	[-999, -999, -999]	n/a	0	0	0	n/a	n/a	0.0	0	0	0	FR3	2	R1195E
1338.067	0.517	1406453	DISTRACT_END	n/a	n/a	n/a	-999	0	12	[0, 0, 0]	n/a	0	0	0	n/a	n/a	0.0	0	0	0	FR3	2	R1195E
1338.584	0.5	1406970	RETRIEVAL_ORIENT	n/a	n/a	n/a	-999	0	12	[0, 0, 0]	n/a	0	0	0	n/a	n/a	0.0	0	0	0	FR3	2	R1195E
1339.101	1.459	1407487	REC_START	n/a	n/a	n/a	-999	0	12	[0, 0, 0]	n/a	0	0	0	n/a	n/a	0.0	0	0	0	FR3	2	R1195E
1340.56	0.701	1408946	REC_WORD_VV	1.459	n/a	<>	-999	0	12	[0, 0, 0]	n/a	0	0	0	n/a	n/a	0.0	0	0	0	FR3	2	R1195E
1341.261	3.633	1409647	REC_WORD	2.16	n/a	MOLE	12	1	12	[0, 0, 0]	n/a	0	0	0	n/a	n/a	0.0	0	0	0	FR3	2	R1195E
1344.894	0.543	1413280	REC_WORD_VV	5.793	n/a	<>	-999	0	12	[0, 0, 0]	n/a	0	0	0	n/a	n/a	0.0	0	0	0	FR3	2	R1195E
1345.437	1.513	1413823	REC_WORD	6.336	n/a	SEAL	5	1	12	[0, 0, 0]	n/a	0	0	0	n/a	n/a	0.0	0	0	0	FR3	2	R1195E
1346.95	4.082	1415336	REC_WORD	7.849	n/a	ELF	6	1	12	[0, 0, 0]	n/a	0	0	0	n/a	n/a	0.0	0	0	0	FR3	2	R1195E
1351.032	1.803	1419418	REC_WORD	11.931	n/a	TOOTH	2	1	12	[0, 0, 0]	n/a	0	0	0	n/a	n/a	0.0	0	0	0	FR3	2	R1195E
1352.835	16.274	1421221	REC_WORD	13.734	n/a	BRUSH	1	1	12	[0, 0, 0]	n/a	0	0	0	n/a	n/a	0.0	0	0	0	FR3	2	R1195E
1369.109	4.581	1437494	REC_END	n/a	n/a	n/a	-999	0	12	[0, 0, 0]	n/a	0	0	0	n/a	n/a	0.0	0	0	0	FR3	2	R1195E
1373.69	0.5	1442075	TRIAL	n/a	n/a	n/a	-999	0	13	[0, 0, 0]	n/a	0	1	0	n/a	n/a	0.0	0	0	0	FR3	2	R1195E
1374.19	10.0	1442575	COUNTDOWN_START	n/a	n/a	n/a	-999	0	13	[0, 0, 0]	n/a	0	1	0	n/a	n/a	0.0	0	0	0	FR3	2	R1195E
1384.618	0.007	1453002	COUNTDOWN_END	n/a	n/a	n/a	-999	0	13	[0, 0, 0]	n/a	0	1	0	n/a	n/a	0.0	0	0	0	FR3	2	R1195E
1384.625	1.6	1453009	ORIENT	n/a	n/a	n/a	-999	0	13	[0, 0, 0]	n/a	0	1	0	n/a	n/a	0.0	0	0	0	FR3	2	R1195E
1386.242	2.134	1454626	ORIENT_OFF	n/a	n/a	n/a	-999	0	13	[0, 0, 0]	n/a	0	1	0	n/a	n/a	0.0	0	0	0	FR3	2	R1195E
1388.376	1.6	1456760	WORD	n/a	wordpools/wordpool.txt	TOOL	1	0	13	[0, 0, 0]	n/a	0	1	0	n/a	n/a	0.0	0	0	0	FR3	2	R1195E
1389.934	0.0	1458318	STIM_ON	n/a	n/a	TOOL	1	0	13	[0, 0, 0]	n/a	1	1	500	3LD8	3LD9	1000.0	200	100	300	FR3	2	R1195E
1389.992	0.442	1458376	WORD_OFF	n/a	n/a	TOOL	1	0	13	[0, 0, 0]	n/a	1	1	500	3LD8	3LD9	1000.0	200	100	300	FR3	2	R1195E
1390.434	0.409	1458818	STIM_OFF	n/a	n/a	n/a	1	0	13	[0, 0, 0]	n/a	0	1	500	3LD8	3LD9	1000.0	200	100	300	FR3	2	R1195E
1390.843	1.6	1459227	WORD	n/a	wordpools/wordpool.txt	EAR	2	0	13	[0, 0, 0]	n/a	0	1	0	n/a	n/a	0.0	0	0	0	FR3	2	R1195E
1392.46	1.0	1460844	WORD_OFF	n/a	n/a	EAR	2	0	13	[0, 0, 0]	n/a	0	1	0	n/a	n/a	0.0	0	0	0	FR3	2	R1195E
1393.46	1.6	1461844	WORD	n/a	wordpools/wordpool.txt	STOVE	3	0	13	[0, 0, 0]	n/a	0	1	0	n/a	n/a	0.0	0	0	0	FR3	2	R1195E
1395.026	0.0	1463410	STIM_ON	n/a	n/a	STOVE	3	0	13	[0, 0, 0]	n/a	1	1	500	3LD8	3LD9	1000.0	200	100	300	FR3	2	R1195E
1395.077	0.449	1463461	WORD_OFF	n/a	n/a	STOVE	3	0	13	[0, 0, 0]	n/a	1	1	500	3LD8	3LD9	1000.0	200	100	300	FR3	2	R1195E
1395.526	0.418	1463910	STIM_OFF	n/a	n/a	n/a	3	0	13	[0, 0, 0]	n/a	0	1	500	3LD8	3LD9	1000.0	200	100	300	FR3	2	R1195E
1395.944	1.6	1464328	WORD	n/a	wordpools/wordpool.txt	BEACH	4	0	13	[0, 0, 0]	n/a	0	1	0	n/a	n/a	0.0	0	0	0	FR3	2	R1195E
1397.506	0.0	1465890	STIM_ON	n/a	n/a	BEACH	4	0	13	[0, 0, 0]	n/a	1	1	500	3LD8	3LD9	1000.0	200	100	300	FR3	2	R1195E
1397.56	0.446	1465944	WORD_OFF	n/a	n/a	BEACH	4	0	13	[0, 0, 0]	n/a	1	1	500	3LD8	3LD9	1000.0	200	100	300	FR3	2	R1195E
1398.006	0.338	1466390	STIM_OFF	n/a	n/a	n/a	4	0	13	[0, 0, 0]	n/a	0	1	500	3LD8	3LD9	1000.0	200	100	300	FR3	2	R1195E
1398.344	1.6	1466728	WORD	n/a	wordpools/wordpool.txt	STRING	5	1	13	[0, 0, 0]	n/a	0	1	0	n/a	n/a	0.0	0	0	0	FR3	2	R1195E
1399.961	0.767	1468345	WORD_OFF	n/a	n/a	STRING	5	0	13	[0, 0, 0]	n/a	0	1	0	n/a	n/a	0.0	0	0	0	FR3	2	R1195E
1400.728	1.6	1469112	WORD	n/a	wordpools/wordpool.txt	JAR	6	0	13	[0, 0, 0]	n/a	0	1	0	n/a	n/a	0.0	0	0	0	FR3	2	R1195E
1402.298	0.0	1470682	STIM_ON	n/a	n/a	JAR	6	0	13	[0, 0, 0]	n/a	1	1	500	3LD8	3LD9	1000.0	200	100	300	FR3	2	R1195E
1402.345	0.453	1470729	WORD_OFF	n/a	n/a	JAR	6	0	13	[0, 0, 0]	n/a	1	1	500	3LD8	3LD9	1000.0	200	100	300	FR3	2	R1195E
1402.798	0.347	1471182	STIM_OFF	n/a	n/a	n/a	6	0	13	[0, 0, 0]	n/a	0	1	500	3LD8	3LD9	1000.0	200	100	300	FR3	2	R1195E
1403.145	1.6	1471529	WORD	n/a	wordpools/wordpool.txt	SQUARE	7	1	13	[0, 0, 0]	n/a	0	1	0	n/a	n/a	0.0	0	0	0	FR3	2	R1195E
1404.709	0.0	1473093	STIM_ON	n/a	n/a	SQUARE	7	1	13	[0, 0, 0]	n/a	1	1	500	3LD8	3LD9	1000.0	200	100	300	FR3	2	R1195E
1404.762	0.447	1473146	WORD_OFF	n/a	n/a	SQUARE	7	0	13	[0, 0, 0]	n/a	1	1	500	3LD8	3LD9	1000.0	200	100	300	FR3	2	R1195E
1405.209	0.37	1473593	STIM_OFF	n/a	n/a	n/a	7	0	13	[0, 0, 0]	n/a	0	1	500	3LD8	3LD9	1000.0	200	100	300	FR3	2	R1195E
1405.579	1.6	1473963	WORD	n/a	wordpools/wordpool.txt	PIPE	8	0	13	[0, 0, 0]	n/a	0	1	0	n/a	n/a	0.0	0	0	0	FR3	2	R1195E
1407.196	0.983	1475580	WORD_OFF	n/a	n/a	PIPE	8	0	13	[0, 0, 0]	n/a	0	1	0	n/a	n/a	0.0	0	0	0	FR3	2	R1195E
1408.179	1.6	1476562	WORD	n/a	wordpools/wordpool.txt	ROOF	9	1	13	[0, 0, 0]	n/a	0	1	0	n/a	n/a	0.0	0	0	0	FR3	2	R1195E
1409.746	0.0	1478129	STIM_ON	n/a	n/a	ROOF	9	1	13	[0, 0, 0]	n/a	1	1	500	3LD8	3LD9	1000.0	200	100	300	FR3	2	R1195E
1409.796	0.45	1478179	WORD_OFF	n/a	n/a	ROOF	9	0	13	[0, 0, 0]	n/a	1	1	500	3LD8	3LD9	1000.0	200	100	300	FR3	2	R1195E
1410.246	0.35	1478629	STIM_OFF	n/a	n/a	n/a	9	0	13	[0, 0, 0]	n/a	0	1	500	3LD8	3LD9	1000.0	200	100	300	FR3	2	R1195E
1410.596	1.6	1478979	WORD	n/a	wordpools/wordpool.txt	WAVE	10	0	13	[0, 0, 0]	n/a	0	1	0	n/a	n/a	0.0	0	0	0	FR3	2	R1195E
1412.167	0.0	1480550	STIM_ON	n/a	n/a	WAVE	10	0	13	[0, 0, 0]	n/a	1	1	500	3LD8	3LD9	1000.0	200	100	300	FR3	2	R1195E
1412.213	0.454	1480596	WORD_OFF	n/a	n/a	WAVE	10	0	13	[0, 0, 0]	n/a	1	1	500	3LD8	3LD9	1000.0	200	100	300	FR3	2	R1195E
1412.667	0.48	1481050	STIM_OFF	n/a	n/a	n/a	10	0	13	[0, 0, 0]	n/a	0	1	500	3LD8	3LD9	1000.0	200	100	300	FR3	2	R1195E
1413.147	1.6	1481530	WORD	n/a	wordpools/wordpool.txt	CUBE	11	1	13	[0, 0, 0]	n/a	0	1	0	n/a	n/a	0.0	0	0	0	FR3	2	R1195E
1414.719	0.0	1483102	STIM_ON	n/a	n/a	CUBE	11	1	13	[0, 0, 0]	n/a	1	1	500	3LD8	3LD9	1000.0	200	100	300	FR3	2	R1195E
1414.764	0.455	1483147	WORD_OFF	n/a	n/a	CUBE	11	0	13	[0, 0, 0]	n/a	1	1	500	3LD8	3LD9	1000.0	200	100	300	FR3	2	R1195E
1415.219	0.495	1483602	STIM_OFF	n/a	n/a	n/a	11	0	13	[0, 0, 0]	n/a	0	1	500	3LD8	3LD9	1000.0	200	100	300	FR3	2	R1195E
1415.714	1.6	1484097	WORD	n/a	wordpools/wordpool.txt	CLAY	12	1	13	[0, 0, 0]	n/a	0	1	0	n/a	n/a	0.0	0	0	0	FR3	2	R1195E
1417.331	0.0	1485714	DISTRACT_START	n/a	n/a	n/a	-999	0	13	[0, 0, 0]	n/a	0	1	0	n/a	n/a	0.0	0	0	0	FR3	2	R1195E
1417.331	0.001	1485714	WORD_OFF	n/a	n/a	CLAY	12	0	13	[0, 0, 0]	n/a	0	1	0	n/a	n/a	0.0	0	0	0	FR3	2	R1195E
1417.332	0.015	1485715	START	n/a	n/a	n/a	-999	0	13	[-999, -999, -999]	n/a	0	1	0	n/a	n/a	0.0	0	0	0	FR3	2	R1195E
1417.347	7.618	1485730	PROB	7.584	n/a	n/a	-999	0	13	[4, 6, 7]	17	0	1	0	n/a	n/a	0.0	0	0	0	FR3	2	R1195E
1424.965	3.001	1493348	PROB	2.973	n/a	n/a	-999	0	13	[6, 4, 2]	12	0	1	0	n/a	n/a	0.0	0	0	0	FR3	2	R1195E
1427.966	4.417	1496349	PROB	4.389	n/a	n/a	-999	0	13	[4, 8, 4]	16	0	1	0	n/a	n/a	0.0	0	0	0	FR3	2	R1195E
1432.383	4.018	1500766	PROB	3.979	n/a	n/a	-999	0	13	[3, 9, 9]	21	0	1	0	n/a	n/a	0.0	0	0	0	FR3	2	R1195E
1436.401	5.001	1504783	PROB	5.001	n/a	n/a	-999	0	13	[4, 4, 9]	17	0	1	0	n/a	n/a	0.0	0	0	0	FR3	2	R1195E
1441.402	0.016	1509784	STOP	n/a	n/a	n/a	-999	0	13	[-999, -999, -999]	n/a	0	1	0	n/a	n/a	0.0	0	0	0	FR3	2	R1195E
1441.418	0.55	1509800	DISTRACT_END	n/a	n/a	n/a	-999	0	13	[0, 0, 0]	n/a	0	1	0	n/a	n/a	0.0	0	0	0	FR3	2	R1195E
1441.968	0.5	1510350	RETRIEVAL_ORIENT	n/a	n/a	n/a	-999	0	13	[0, 0, 0]	n/a	0	1	0	n/a	n/a	0.0	0	0	0	FR3	2	R1195E
1442.486	1.205	1510868	REC_START	n/a	n/a	n/a	-999	0	13	[0, 0, 0]	n/a	0	1	0	n/a	n/a	0.0	0	0	0	FR3	2	R1195E
1443.691	1.532	1512073	REC_WORD_VV	1.205	n/a	<>	-999	0	13	[0, 0, 0]	n/a	0	1	0	n/a	n/a	0.0	0	0	0	FR3	2	R1195E
1445.223	2.513	1513605	REC_WORD	2.737	n/a	CLAY	12	1	13	[0, 0, 0]	n/a	0	1	0	n/a	n/a	0.0	0	0	0	FR3	2	R1195E
1447.736	1.317	1516118	REC_WORD	5.25	n/a	SQUARE	7	1	13	[0, 0, 0]	n/a	0	1	0	n/a	n/a	0.0	0	0	0	FR3	2	R1195E
1449.053	1.99	1517435	REC_WORD	6.567	n/a	CUBE	11	1	13	[0, 0, 0]	n/a	0	1	0	n/a	n/a	0.0	0	0	0	FR3	2	R1195E
1451.043	7.739	1519425	REC_WORD	8.557	n/a	ROOF	9	1	13	[0, 0, 0]	n/a	0	1	0	n/a	n/a	0.0	0	0	0	FR3	2	R1195E
1458.782	13.714	1527164	REC_WORD	16.296	n/a	STRING	5	1	13	[0, 0, 0]	n/a	0	1	0	n/a	n/a	0.0	0	0	0	FR3	2	R1195E
1472.496	4.578	1540877	REC_END	n/a	n/a	n/a	-999	0	13	[0, 0, 0]	n/a	0	1	0	n/a	n/a	0.0	0	0	0	FR3	2	R1195E
1477.074	0.5	1545455	TRIAL	n/a	n/a	n/a	-999	0	14	[0, 0, 0]	n/a	0	0	0	n/a	n/a	0.0	0	0	0	FR3	2	R1195E
1477.574	10.0	1545955	COUNTDOWN_START	n/a	n/a	n/a	-999	0	14	[0, 0, 0]	n/a	0	0	0	n/a	n/a	0.0	0	0	0	FR3	2	R1195E
1488.002	0.008	1556382	COUNTDOWN_END	n/a	n/a	n/a	-999	0	14	[0, 0, 0]	n/a	0	0	0	n/a	n/a	0.0	0	0	0	FR3	2	R1195E
1488.01	1.6	1556390	ORIENT	n/a	n/a	n/a	-999	0	14	[0, 0, 0]	n/a	0	0	0	n/a	n/a	0.0	0	0	0	FR3	2	R1195E
1489.627	1.983	1558007	ORIENT_OFF	n/a	n/a	n/a	-999	0	14	[0, 0, 0]	n/a	0	0	0	n/a	n/a	0.0	0	0	0	FR3	2	R1195E
1491.61	1.6	1559990	WORD	n/a	wordpools/wordpool.txt	PEAR	1	1	14	[0, 0, 0]	n/a	0	0	0	n/a	n/a	0.0	0	0	0	FR3	2	R1195E
1493.227	0.85	1561607	WORD_OFF	n/a	n/a	PEAR	1	0	14	[0, 0, 0]	n/a	0	0	0	n/a	n/a	0.0	0	0	0	FR3	2	R1195E
1494.077	1.6	1562457	WORD	n/a	wordpools/wordpool.txt	SPONGE	2	0	14	[0, 0, 0]	n/a	0	0	0	n/a	n/a	0.0	0	0	0	FR3	2	R1195E
1495.694	0.801	1564074	WORD_OFF	n/a	n/a	SPONGE	2	0	14	[0, 0, 0]	n/a	0	0	0	n/a	n/a	0.0	0	0	0	FR3	2	R1195E
1496.495	1.6	1564875	WORD	n/a	wordpools/wordpool.txt	INK	3	0	14	[0, 0, 0]	n/a	0	0	0	n/a	n/a	0.0	0	0	0	FR3	2	R1195E
1498.111	0.801	1566491	WORD_OFF	n/a	n/a	INK	3	0	14	[0, 0, 0]	n/a	0	0	0	n/a	n/a	0.0	0	0	0	FR3	2	R1195E
1498.912	1.6	1567292	WORD	n/a	wordpools/wordpool.txt	FRUIT	4	1	14	[0, 0, 0]	n/a	0	0	0	n/a	n/a	0.0	0	0	0	FR3	2	R1195E
1500.529	0.783	1568909	WORD_OFF	n/a	n/a	FRUIT	4	0	14	[0, 0, 0]	n/a	0	0	0	n/a	n/a	0.0	0	0	0	FR3	2	R1195E
1501.312	1.6	1569692	WORD	n/a	wordpools/wordpool.txt	CLOTH	5	0	14	[0, 0, 0]	n/a	0	0	0	n/a	n/a	0.0	0	0	0	FR3	2	R1195E
1502.929	0.9	1571309	WORD_OFF	n/a	n/a	CLOTH	5	0	14	[0, 0, 0]	n/a	0	0	0	n/a	n/a	0.0	0	0	0	FR3	2	R1195E
1503.829	1.6	1572209	WORD	n/a	wordpools/wordpool.txt	LAWN	6	0	14	[0, 0, 0]	n/a	0	0	0	n/a	n/a	0.0	0	0	0	FR3	2	R1195E
1505.446	0.917	1573826	WORD_OFF	n/a	n/a	LAWN	6	0	14	[0, 0, 0]	n/a	0	0	0	n/a	n/a	0.0	0	0	0	FR3	2	R1195E
1506.363	1.6	1574743	WORD	n/a	wordpools/wordpool.txt	PASTE	7	0	14	[0, 0, 0]	n/a	0	0	0	n/a	n/a	0.0	0	0	0	FR3	2	R1195E
1507.98	0.883	1576360	WORD_OFF	n/a	n/a	PASTE	7	0	14	[0, 0, 0]	n/a	0	0	0	n/a	n/a	0.0	0	0	0	FR3	2	R1195E
1508.863	1.6	1577243	WORD	n/a	wordpools/wordpool.txt	DIME	8	0	14	[0, 0, 0]	n/a	0	0	0	n/a	n/a	0.0	0	0	0	FR3	2	R1195E
1510.48	0.867	1578860	WORD_OFF	n/a	n/a	DIME	8	0	14	[0, 0, 0]	n/a	0	0	0	n/a	n/a	0.0	0	0	0	FR3	2	R1195E
1511.347	1.6	1579727	WORD	n/a	wordpools/wordpool.txt	HOOF	9	0	14	[0, 0, 0]	n/a	0	0	0	n/a	n/a	0.0	0	0	0	FR3	2	R1195E
1512.964	0.984	1581344	WORD_OFF	n/a	n/a	HOOF	9	0	14	[0, 0, 0]	n/a	0	0	0	n/a	n/a	0.0	0	0	0	FR3	2	R1195E
1513.948	1.6	1582328	WORD	n/a	wordpools/wordpool.txt	BEAN	10	1	14	[0, 0, 0]	n/a	0	0	0	n/a	n/a	0.0	0	0	0	FR3	2	R1195E
1515.565	0.783	1583944	WORD_OFF	n/a	n/a	BEAN	10	0	14	[0, 0, 0]	n/a	0	0	0	n/a	n/a	0.0	0	0	0	FR3	2	R1195E
1516.348	1.6	1584727	WORD	n/a	wordpools/wordpool.txt	RICE	11	1	14	[0, 0, 0]	n/a	0	0	0	n/a	n/a	0.0	0	0	0	FR3	2	R1195E
1517.965	0.8	1586344	WORD_OFF	n/a	n/a	RICE	11	0	14	[0, 0, 0]	n/a	0	0	0	n/a	n/a	0.0	0	0	0	FR3	2	R1195E
1518.765	1.6	1587144	WORD	n/a	wordpools/wordpool.txt	BATH	12	1	14	[0, 0, 0]	n/a	0	0	0	n/a	n/a	0.0	0	0	0	FR3	2	R1195E
1520.382	0.0	1588761	WORD_OFF	n/a	n/a	BATH	12	0	14	[0, 0, 0]	n/a	0	0	0	n/a	n/a	0.0	0	0	0	FR3	2	R1195E
1520.382	0.001	1588761	DISTRACT_START	n/a	n/a	n/a	-999	0	14	[0, 0, 0]	n/a	0	0	0	n/a	n/a	0.0	0	0	0	FR3	2	R1195E
1520.383	0.016	1588762	START	n/a	n/a	n/a	-999	0	14	[-999, -999, -999]	n/a	0	0	0	n/a	n/a	0.0	0	0	0	FR3	2	R1195E
1520.399	5.601	1588778	PROB	5.577	n/a	n/a	-999	0	14	[3, 4, 3]	10	0	0	0	n/a	n/a	0.0	0	0	0	FR3	2	R1195E
1526.0	9.251	1594379	PROB	9.216	n/a	n/a	-999	0	14	[7, 9, 3]	19	0	0	0	n/a	n/a	0.0	0	0	0	FR3	2	R1195E
1535.251	4.184	1603630	PROB	4.15	n/a	n/a	-999	0	14	[4, 9, 9]	22	0	0	0	n/a	n/a	0.0	0	0	0	FR3	2	R1195E
1539.435	3.039	1607814	PROB	3.039	n/a	n/a	-999	0	14	[7, 2, 7]	16	0	0	0	n/a	n/a	0.0	0	0	0	FR3	2	R1195E
1542.474	0.012	1610852	STOP	n/a	n/a	n/a	-999	0	14	[-999, -999, -999]	n/a	0	0	0	n/a	n/a	0.0	0	0	0	FR3	2	R1195E
1542.486	0.617	1610864	DISTRACT_END	n/a	n/a	n/a	-999	0	14	[0, 0, 0]	n/a	0	0	0	n/a	n/a	0.0	0	0	0	FR3	2	R1195E
1543.103	0.5	1611481	RETRIEVAL_ORIENT	n/a	n/a	n/a	-999	0	14	[0, 0, 0]	n/a	0	0	0	n/a	n/a	0.0	0	0	0	FR3	2	R1195E
1543.62	1.106	1611998	REC_START	n/a	n/a	n/a	-999	0	14	[0, 0, 0]	n/a	0	0	0	n/a	n/a	0.0	0	0	0	FR3	2	R1195E
1544.726	2.895	1613104	REC_WORD_VV	1.106	n/a	<>	-999	0	14	[0, 0, 0]	n/a	0	0	0	n/a	n/a	0.0	0	0	0	FR3	2	R1195E
1547.621	2.527	1615999	REC_WORD	4.001	n/a	MOTH	-999	0	14	[0, 0, 0]	n/a	0	0	0	n/a	n/a	0.0	0	0	0	FR3	2	R1195E
1550.148	2.382	1618526	REC_WORD	6.528	n/a	PEAR	1	1	14	[0, 0, 0]	n/a	0	0	0	n/a	n/a	0.0	0	0	0	FR3	2	R1195E
1552.53	2.711	1620908	REC_WORD	8.91	n/a	FRUIT	4	1	14	[0, 0, 0]	n/a	0	0	0	n/a	n/a	0.0	0	0	0	FR3	2	R1195E
1555.241	2.647	1623619	REC_WORD	11.621	n/a	RICE	11	1	14	[0, 0, 0]	n/a	0	0	0	n/a	n/a	0.0	0	0	0	FR3	2	R1195E
1557.888	6.565	1626266	REC_WORD	14.268	n/a	BEAN	10	1	14	[0, 0, 0]	n/a	0	0	0	n/a	n/a	0.0	0	0	0	FR3	2	R1195E
1564.453	9.176	1632831	REC_WORD	20.833	n/a	BATH	12	1	14	[0, 0, 0]	n/a	0	0	0	n/a	n/a	0.0	0	0	0	FR3	2	R1195E
1573.629	4.296	1642006	REC_END	n/a	n/a	n/a	-999	0	14	[0, 0, 0]	n/a	0	0	0	n/a	n/a	0.0	0	0	0	FR3	2	R1195E
1577.925	0.5	1646302	TRIAL	n/a	n/a	n/a	-999	0	15	[0, 0, 0]	n/a	0	1	0	n/a	n/a	0.0	0	0	0	FR3	2	R1195E
1578.425	10.0	1646802	COUNTDOWN_START	n/a	n/a	n/a	-999	0	15	[0, 0, 0]	n/a	0	1	0	n/a	n/a	0.0	0	0	0	FR3	2	R1195E
1588.853	0.008	1657230	COUNTDOWN_END	n/a	n/a	n/a	-999	0	15	[0, 0, 0]	n/a	0	1	0	n/a	n/a	0.0	0	0	0	FR3	2	R1195E
1588.861	1.6	1657238	ORIENT	n/a	n/a	n/a	-999	0	15	[0, 0, 0]	n/a	0	1	0	n/a	n/a	0.0	0	0	0	FR3	2	R1195E
1590.478	1.967	1658855	ORIENT_OFF	n/a	n/a	n/a	-999	0	15	[0, 0, 0]	n/a	0	1	0	n/a	n/a	0.0	0	0	0	FR3	2	R1195E
1592.445	1.6	1660822	WORD	n/a	wordpools/wordpool.txt	TEA	1	1	15	[0, 0, 0]	n/a	0	1	0	n/a	n/a	0.0	0	0	0	FR3	2	R1195E
1594.026	0.0	1662402	STIM_ON	n/a	n/a	TEA	1	1	15	[0, 0, 0]	n/a	1	1	500	3LD8	3LD9	1000.0	200	100	300	FR3	2	R1195E
1594.062	0.464	1662438	WORD_OFF	n/a	n/a	TEA	1	0	15	[0, 0, 0]	n/a	1	1	500	3LD8	3LD9	1000.0	200	100	300	FR3	2	R1195E
1594.526	0.386	1662902	STIM_OFF	n/a	n/a	n/a	1	0	15	[0, 0, 0]	n/a	0	1	500	3LD8	3LD9	1000.0	200	100	300	FR3	2	R1195E
1594.912	1.6	1663288	WORD	n/a	wordpools/wordpool.txt	MOOSE	2	1	15	[0, 0, 0]	n/a	0	1	0	n/a	n/a	0.0	0	0	0	FR3	2	R1195E
1596.529	0.833	1664905	WORD_OFF	n/a	n/a	MOOSE	2	0	15	[0, 0, 0]	n/a	0	1	0	n/a	n/a	0.0	0	0	0	FR3	2	R1195E
1597.362	1.6	1665738	WORD	n/a	wordpools/wordpool.txt	FOG	3	1	15	[0, 0, 0]	n/a	0	1	0	n/a	n/a	0.0	0	0	0	FR3	2	R1195E
1598.936	0.0	1667312	STIM_ON	n/a	n/a	FOG	3	1	15	[0, 0, 0]	n/a	1	1	500	3LD8	3LD9	1000.0	200	100	300	FR3	2	R1195E
1598.979	0.457	1667355	WORD_OFF	n/a	n/a	FOG	3	0	15	[0, 0, 0]	n/a	1	1	500	3LD8	3LD9	1000.0	200	100	300	FR3	2	R1195E
1599.436	0.343	1667812	STIM_OFF	n/a	n/a	n/a	3	0	15	[0, 0, 0]	n/a	0	1	500	3LD8	3LD9	1000.0	200	100	300	FR3	2	R1195E
1599.779	1.6	1668155	WORD	n/a	wordpools/wordpool.txt	PEN	4	0	15	[0, 0, 0]	n/a	0	1	0	n/a	n/a	0.0	0	0	0	FR3	2	R1195E
1601.356	0.0	1669732	STIM_ON	n/a	n/a	PEN	4	0	15	[0, 0, 0]	n/a	1	1	500	3LD8	3LD9	1000.0	200	100	300	FR3	2	R1195E
1601.396	0.46	1669772	WORD_OFF	n/a	n/a	PEN	4	0	15	[0, 0, 0]	n/a	1	1	500	3LD8	3LD9	1000.0	200	100	300	FR3	2	R1195E
1601.856	0.457	1670232	STIM_OFF	n/a	n/a	n/a	4	0	15	[0, 0, 0]	n/a	0	1	500	3LD8	3LD9	1000.0	200	100	300	FR3	2	R1195E
1602.313	1.6	1670689	WORD	n/a	wordpools/wordpool.txt	TENT	5	0	15	[0, 0, 0]	n/a	0	1	0	n/a	n/a	0.0	0	0	0	FR3	2	R1195E
1603.93	0.983	1672306	WORD_OFF	n/a	n/a	TENT	5	0	15	[0, 0, 0]	n/a	0	1	0	n/a	n/a	0.0	0	0	0	FR3	2	R1195E
1604.913	1.6	1673289	WORD	n/a	wordpools/wordpool.txt	COUCH	6	1	15	[0, 0, 0]	n/a	0	1	0	n/a	n/a	0.0	0	0	0	FR3	2	R1195E
1606.487	0.0	1674863	STIM_ON	n/a	n/a	COUCH	6	1	15	[0, 0, 0]	n/a	1	1	500	3LD8	3LD9	1000.0	200	100	300	FR3	2	R1195E
1606.53	0.457	1674906	WORD_OFF	n/a	n/a	COUCH	6	0	15	[0, 0, 0]	n/a	1	1	500	3LD8	3LD9	1000.0	200	100	300	FR3	2	R1195E
1606.987	0.394	1675363	STIM_OFF	n/a	n/a	n/a	6	0	15	[0, 0, 0]	n/a	0	1	500	3LD8	3LD9	1000.0	200	100	300	FR3	2	R1195E
1607.381	1.6	1675757	WORD	n/a	wordpools/wordpool.txt	STAIR	7	0	15	[0, 0, 0]	n/a	0	1	0	n/a	n/a	0.0	0	0	0	FR3	2	R1195E
1608.998	0.833	1677374	WORD_OFF	n/a	n/a	STAIR	7	0	15	[0, 0, 0]	n/a	0	1	0	n/a	n/a	0.0	0	0	0	FR3	2	R1195E
1609.831	1.6	1678207	WORD	n/a	wordpools/wordpool.txt	BOWL	8	0	15	[0, 0, 0]	n/a	0	1	0	n/a	n/a	0.0	0	0	0	FR3	2	R1195E
1611.448	0.967	1679824	WORD_OFF	n/a	n/a	BOWL	8	0	15	[0, 0, 0]	n/a	0	1	0	n/a	n/a	0.0	0	0	0	FR3	2	R1195E
1612.415	1.6	1680791	WORD	n/a	wordpools/wordpool.txt	SMOKE	9	1	15	[0, 0, 0]	n/a	0	1	0	n/a	n/a	0.0	0	0	0	FR3	2	R1195E
1614.032	0.85	1682408	WORD_OFF	n/a	n/a	SMOKE	9	0	15	[0, 0, 0]	n/a	0	1	0	n/a	n/a	0.0	0	0	0	FR3	2	R1195E
1614.882	1.6	1683258	WORD	n/a	wordpools/wordpool.txt	BED	10	1	15	[0, 0, 0]	n/a	0	1	0	n/a	n/a	0.0	0	0	0	FR3	2	R1195E
1616.499	0.9	1684875	WORD_OFF	n/a	n/a	BED	10	0	15	[0, 0, 0]	n/a	0	1	0	n/a	n/a	0.0	0	0	0	FR3	2	R1195E
1617.399	1.6	1685775	WORD	n/a	wordpools/wordpool.txt	LAMB	11	0	15	[0, 0, 0]	n/a	0	1	0	n/a	n/a	0.0	0	0	0	FR3	2	R1195E
1618.979	0.0	1687355	STIM_ON	n/a	n/a	LAMB	11	0	15	[0, 0, 0]	n/a	1	1	500	3LD8	3LD9	1000.0	200	100	300	FR3	2	R1195E
1619.016	0.463	1687392	WORD_OFF	n/a	n/a	LAMB	11	0	15	[0, 0, 0]	n/a	1	1	500	3LD8	3LD9	1000.0	200	100	300	FR3	2	R1195E
1619.479	0.504	1687855	STIM_OFF	n/a	n/a	n/a	11	0	15	[0, 0, 0]	n/a	0	1	500	3LD8	3LD9	1000.0	200	100	300	FR3	2	R1195E
1619.983	1.6	1688359	WORD	n/a	wordpools/wordpool.txt	ROOM	12	1	15	[0, 0, 0]	n/a	0	1	0	n/a	n/a	0.0	0	0	0	FR3	2	R1195E
1621.6	0.0	1689975	WORD_OFF	n/a	n/a	ROOM	12	0	15	[0, 0, 0]	n/a	0	1	0	n/a	n/a	0.0	0	0	0	FR3	2	R1195E
1621.6	0.001	1689975	DISTRACT_START	n/a	n/a	n/a	-999	0	15	[0, 0, 0]	n/a	0	1	0	n/a	n/a	0.0	0	0	0	FR3	2	R1195E
1621.601	0.015	1689976	START	n/a	n/a	n/a	-999	0	15	[-999, -999, -999]	n/a	0	1	0	n/a	n/a	0.0	0	0	0	FR3	2	R1195E
1621.616	4.551	1689991	PROB	4.529	n/a	n/a	-999	0	15	[5, 2, 7]	14	0	1	0	n/a	n/a	0.0	0	0	0	FR3	2	R1195E
1626.167	3.201	1694542	PROB	3.178	n/a	n/a	-999	0	15	[3, 2, 2]	7	0	1	0	n/a	n/a	0.0	0	0	0	FR3	2	R1195E
1629.368	3.05	1697743	PROB	3.018	n/a	n/a	-999	0	15	[6, 1, 6]	13	0	1	0	n/a	n/a	0.0	0	0	0	FR3	2	R1195E
1632.418	3.384	1700793	PROB	3.359	n/a	n/a	-999	0	15	[1, 3, 8]	12	0	1	0	n/a	n/a	0.0	0	0	0	FR3	2	R1195E
1635.802	2.701	1704177	PROB	2.664	n/a	n/a	-999	0	15	[1, 8, 8]	17	0	1	0	n/a	n/a	0.0	0	0	0	FR3	2	R1195E
1638.503	3.762	1706878	PROB	3.762	n/a	n/a	-999	0	15	[2, 1, 3]	5	0	1	0	n/a	n/a	0.0	0	0	0	FR3	2	R1195E
1642.265	0.022	1710640	STOP	n/a	n/a	n/a	-999	0	15	[-999, -999, -999]	n/a	0	1	0	n/a	n/a	0.0	0	0	0	FR3	2	R1195E
1642.287	0.666	1710662	DISTRACT_END	n/a	n/a	n/a	-999	0	15	[0, 0, 0]	n/a	0	1	0	n/a	n/a	0.0	0	0	0	FR3	2	R1195E
1642.953	0.5	1711328	RETRIEVAL_ORIENT	n/a	n/a	n/a	-999	0	15	[0, 0, 0]	n/a	0	1	0	n/a	n/a	0.0	0	0	0	FR3	2	R1195E
1643.471	1.793	1711846	REC_START	n/a	n/a	n/a	-999	0	15	[0, 0, 0]	n/a	0	1	0	n/a	n/a	0.0	0	0	0	FR3	2	R1195E
1645.264	2.264	1713639	REC_WORD_VV	1.793	n/a	<>	-999	0	15	[0, 0, 0]	n/a	0	1	0	n/a	n/a	0.0	0	0	0	FR3	2	R1195E
1647.528	2.263	1715902	REC_WORD	4.057	n/a	COUCH	6	1	15	[0, 0, 0]	n/a	0	1	0	n/a	n/a	0.0	0	0	0	FR3	2	R1195E
1649.791	1.81	1718165	REC_WORD	6.32	n/a	BED	10	1	15	[0, 0, 0]	n/a	0	1	0	n/a	n/a	0.0	0	0	0	FR3	2	R1195E
1651.601	2.871	1719975	REC_WORD	8.13	n/a	ROOM	12	1	15	[0, 0, 0]	n/a	0	1	0	n/a	n/a	0.0	0	0	0	FR3	2	R1195E
1654.472	2.135	1722846	REC_WORD	11.001	n/a	TEA	1	1	15	[0, 0, 0]	n/a	0	1	0	n/a	n/a	0.0	0	0	0	FR3	2	R1195E
1656.607	11.553	1724981	REC_WORD	13.136	n/a	MOOSE	2	1	15	[0, 0, 0]	n/a	0	1	0	n/a	n/a	0.0	0	0	0	FR3	2	R1195E
1668.16	2.278	1736534	REC_WORD	24.689	n/a	SMOKE	9	1	15	[0, 0, 0]	n/a	0	1	0	n/a	n/a	0.0	0	0	0	FR3	2	R1195E
1670.438	3.043	1738812	REC_WORD	26.967	n/a	FOG	3	1	15	[0, 0, 0]	n/a	0	1	0	n/a	n/a	0.0	0	0	0	FR3	2	R1195E
1673.481	4.429	1741854	REC_END	n/a	n/a	n/a	-999	0	15	[0, 0, 0]	n/a	0	1	0	n/a	n/a	0.0	0	0	0	FR3	2	R1195E
1677.91	0.5	1746283	TRIAL	n/a	n/a	n/a	-999	0	16	[0, 0, 0]	n/a	0	1	0	n/a	n/a	0.0	0	0	0	FR3	2	R1195E
1678.41	10.0	1746783	COUNTDOWN_START	n/a	n/a	n/a	-999	0	16	[0, 0, 0]	n/a	0	1	0	n/a	n/a	0.0	0	0	0	FR3	2	R1195E
1688.838	0.007	1757211	COUNTDOWN_END	n/a	n/a	n/a	-999	0	16	[0, 0, 0]	n/a	0	1	0	n/a	n/a	0.0	0	0	0	FR3	2	R1195E
1688.845	1.6	1757218	ORIENT	n/a	n/a	n/a	-999	0	16	[0, 0, 0]	n/a	0	1	0	n/a	n/a	0.0	0	0	0	FR3	2	R1195E
1690.462	2.05	1758835	ORIENT_OFF	n/a	n/a	n/a	-999	0	16	[0, 0, 0]	n/a	0	1	0	n/a	n/a	0.0	0	0	0	FR3	2	R1195E
1692.512	1.6	1760885	WORD	n/a	wordpools/wordpool.txt	SMILE	1	0	16	[0, 0, 0]	n/a	0	1	0	n/a	n/a	0.0	0	0	0	FR3	2	R1195E
1694.094	0.0	1762467	STIM_ON	n/a	n/a	SMILE	1	0	16	[0, 0, 0]	n/a	1	1	500	3LD8	3LD9	1000.0	200	100	300	FR3	2	R1195E
1694.129	0.465	1762502	WORD_OFF	n/a	n/a	SMILE	1	0	16	[0, 0, 0]	n/a	1	1	500	3LD8	3LD9	1000.0	200	100	300	FR3	2	R1195E
1694.594	0.519	1762967	STIM_OFF	n/a	n/a	n/a	1	0	16	[0, 0, 0]	n/a	0	1	500	3LD8	3LD9	1000.0	200	100	300	FR3	2	R1195E
1695.113	1.6	1763486	WORD	n/a	wordpools/wordpool.txt	FILM	2	0	16	[0, 0, 0]	n/a	0	1	0	n/a	n/a	0.0	0	0	0	FR3	2	R1195E
1696.73	0.883	1765103	WORD_OFF	n/a	n/a	FILM	2	0	16	[0, 0, 0]	n/a	0	1	0	n/a	n/a	0.0	0	0	0	FR3	2	R1195E
1697.613	1.6	1765986	WORD	n/a	wordpools/wordpool.txt	SHIRT	3	0	16	[0, 0, 0]	n/a	0	1	0	n/a	n/a	0.0	0	0	0	FR3	2	R1195E
1699.193	0.0	1767566	STIM_ON	n/a	n/a	SHIRT	3	0	16	[0, 0, 0]	n/a	1	1	500	3LD8	3LD9	1000.0	200	100	300	FR3	2	R1195E
1699.23	0.463	1767603	WORD_OFF	n/a	n/a	SHIRT	3	0	16	[0, 0, 0]	n/a	1	1	500	3LD8	3LD9	1000.0	200	100	300	FR3	2	R1195E
1699.693	0.403	1768066	STIM_OFF	n/a	n/a	n/a	3	0	16	[0, 0, 0]	n/a	0	1	500	3LD8	3LD9	1000.0	200	100	300	FR3	2	R1195E
1700.096	1.6	1768468	WORD	n/a	wordpools/wordpool.txt	DOOR	4	1	16	[0, 0, 0]	n/a	0	1	0	n/a	n/a	0.0	0	0	0	FR3	2	R1195E
1701.714	0.983	1770086	WORD_OFF	n/a	n/a	DOOR	4	0	16	[0, 0, 0]	n/a	0	1	0	n/a	n/a	0.0	0	0	0	FR3	2	R1195E
1702.697	1.6	1771069	WORD	n/a	wordpools/wordpool.txt	HOUSE	5	1	16	[0, 0, 0]	n/a	0	1	0	n/a	n/a	0.0	0	0	0	FR3	2	R1195E
1704.314	0.784	1772686	WORD_OFF	n/a	n/a	HOUSE	5	0	16	[0, 0, 0]	n/a	0	1	0	n/a	n/a	0.0	0	0	0	FR3	2	R1195E
1705.098	1.6	1773470	WORD	n/a	wordpools/wordpool.txt	STORE	6	1	16	[0, 0, 0]	n/a	0	1	0	n/a	n/a	0.0	0	0	0	FR3	2	R1195E
1706.715	0.816	1775087	WORD_OFF	n/a	n/a	STORE	6	0	16	[0, 0, 0]	n/a	0	1	0	n/a	n/a	0.0	0	0	0	FR3	2	R1195E
1707.531	1.6	1775903	WORD	n/a	wordpools/wordpool.txt	PEARL	7	0	16	[0, 0, 0]	n/a	0	1	0	n/a	n/a	0.0	0	0	0	FR3	2	R1195E
1709.116	0.0	1777488	STIM_ON	n/a	n/a	PEARL	7	0	16	[0, 0, 0]	n/a	1	1	500	3LD8	3LD9	1000.0	200	100	300	FR3	2	R1195E
1709.148	0.468	1777520	WORD_OFF	n/a	n/a	PEARL	7	0	16	[0, 0, 0]	n/a	1	1	500	3LD8	3LD9	1000.0	200	100	300	FR3	2	R1195E
1709.616	0.399	1777988	STIM_OFF	n/a	n/a	n/a	7	0	16	[0, 0, 0]	n/a	0	1	500	3LD8	3LD9	1000.0	200	100	300	FR3	2	R1195E
1710.015	1.6	1778387	WORD	n/a	wordpools/wordpool.txt	PARK	8	1	16	[0, 0, 0]	n/a	0	1	0	n/a	n/a	0.0	0	0	0	FR3	2	R1195E
1711.632	0.834	1780004	WORD_OFF	n/a	n/a	PARK	8	0	16	[0, 0, 0]	n/a	0	1	0	n/a	n/a	0.0	0	0	0	FR3	2	R1195E
1712.466	1.6	1780838	WORD	n/a	wordpools/wordpool.txt	STREET	9	1	16	[0, 0, 0]	n/a	0	1	0	n/a	n/a	0.0	0	0	0	FR3	2	R1195E
1714.083	0.933	1782455	WORD_OFF	n/a	n/a	STREET	9	0	16	[0, 0, 0]	n/a	0	1	0	n/a	n/a	0.0	0	0	0	FR3	2	R1195E
1715.016	1.6	1783388	WORD	n/a	wordpools/wordpool.txt	VASE	10	0	16	[0, 0, 0]	n/a	0	1	0	n/a	n/a	0.0	0	0	0	FR3	2	R1195E
1716.605	0.0	1784977	STIM_ON	n/a	n/a	VASE	10	0	16	[0, 0, 0]	n/a	1	1	500	3LD8	3LD9	1000.0	200	100	300	FR3	2	R1195E
1716.633	0.472	1785005	WORD_OFF	n/a	n/a	VASE	10	0	16	[0, 0, 0]	n/a	1	1	500	3LD8	3LD9	1000.0	200	100	300	FR3	2	R1195E
1717.105	0.511	1785477	STIM_OFF	n/a	n/a	n/a	10	0	16	[0, 0, 0]	n/a	0	1	500	3LD8	3LD9	1000.0	200	100	300	FR3	2	R1195E
1717.616	1.6	1785988	WORD	n/a	wordpools/wordpool.txt	WORLD	11	0	16	[0, 0, 0]	n/a	0	1	0	n/a	n/a	0.0	0	0	0	FR3	2	R1195E
1719.233	0.884	1787605	WORD_OFF	n/a	n/a	WORLD	11	0	16	[0, 0, 0]	n/a	0	1	0	n/a	n/a	0.0	0	0	0	FR3	2	R1195E
1720.117	1.6	1788489	WORD	n/a	wordpools/wordpool.txt	CAKE	12	1	16	[0, 0, 0]	n/a	0	1	0	n/a	n/a	0.0	0	0	0	FR3	2	R1195E
1721.734	0.0	1790106	WORD_OFF	n/a	n/a	CAKE	12	0	16	[0, 0, 0]	n/a	0	1	0	n/a	n/a	0.0	0	0	0	FR3	2	R1195E
1721.734	0.0	1790106	DISTRACT_START	n/a	n/a	n/a	-999	0	16	[0, 0, 0]	n/a	0	1	0	n/a	n/a	0.0	0	0	0	FR3	2	R1195E
1721.734	0.017	1790106	START	n/a	n/a	n/a	-999	0	16	[-999, -999, -999]	n/a	0	1	0	n/a	n/a	0.0	0	0	0	FR3	2	R1195E
1721.751	3.717	1790123	PROB	3.683	n/a	n/a	-999	0	16	[8, 7, 3]	18	0	1	0	n/a	n/a	0.0	0	0	0	FR3	2	R1195E
1725.468	5.584	1793840	PROB	5.558	n/a	n/a	-999	0	16	[5, 9, 6]	20	0	1	0	n/a	n/a	0.0	0	0	0	FR3	2	R1195E
1731.052	2.934	1799423	PROB	2.895	n/a	n/a	-999	0	16	[7, 1, 3]	11	0	1	0	n/a	n/a	0.0	0	0	0	FR3	2	R1195E
1733.986	7.001	1802357	PROB	6.964	n/a	n/a	-999	0	16	[7, 5, 8]	20	0	1	0	n/a	n/a	0.0	0	0	0	FR3	2	R1195E
1740.987	2.57	1809358	PROB	2.57	n/a	n/a	-999	0	16	[1, 2, 1]	4	0	1	0	n/a	n/a	0.0	0	0	0	FR3	2	R1195E
1743.557	0.014	1811928	STOP	n/a	n/a	n/a	-999	0	16	[-999, -999, -999]	n/a	0	1	0	n/a	n/a	0.0	0	0	0	FR3	2	R1195E
1743.571	0.634	1811942	DISTRACT_END	n/a	n/a	n/a	-999	0	16	[0, 0, 0]	n/a	0	1	0	n/a	n/a	0.0	0	0	0	FR3	2	R1195E
1744.205	0.5	1812576	RETRIEVAL_ORIENT	n/a	n/a	n/a	-999	0	16	[0, 0, 0]	n/a	0	1	0	n/a	n/a	0.0	0	0	0	FR3	2	R1195E
1744.722	1.522	1813093	REC_START	n/a	n/a	n/a	-999	0	16	[0, 0, 0]	n/a	0	1	0	n/a	n/a	0.0	0	0	0	FR3	2	R1195E
1746.244	2.385	1814615	REC_WORD	1.522	n/a	CAKE	12	1	16	[0, 0, 0]	n/a	0	1	0	n/a	n/a	0.0	0	0	0	FR3	2	R1195E
1748.629	3.079	1817000	REC_WORD_VV	3.907	n/a	<>	-999	0	16	[0, 0, 0]	n/a	0	1	0	n/a	n/a	0.0	0	0	0	FR3	2	R1195E
1751.708	2.55	1820079	REC_WORD	6.986	n/a	DOOR	4	1	16	[0, 0, 0]	n/a	0	1	0	n/a	n/a	0.0	0	0	0	FR3	2	R1195E
1754.258	2.189	1822628	REC_WORD	9.536	n/a	HOUSE	5	1	16	[0, 0, 0]	n/a	0	1	0	n/a	n/a	0.0	0	0	0	FR3	2	R1195E
1756.447	3.131	1824817	REC_WORD	11.725	n/a	STORE	6	1	16	[0, 0, 0]	n/a	0	1	0	n/a	n/a	0.0	0	0	0	FR3	2	R1195E
1759.578	2.474	1827948	REC_WORD	14.856	n/a	PARK	8	1	16	[0, 0, 0]	n/a	0	1	0	n/a	n/a	0.0	0	0	0	FR3	2	R1195E
1762.052	12.679	1830422	REC_WORD	17.33	n/a	STREET	9	1	16	[0, 0, 0]	n/a	0	1	0	n/a	n/a	0.0	0	0	0	FR3	2	R1195E
1774.731	5.196	1843101	REC_END	n/a	n/a	n/a	-999	0	16	[0, 0, 0]	n/a	0	1	0	n/a	n/a	0.0	0	0	0	FR3	2	R1195E
1779.927	0.5	1848296	TRIAL	n/a	n/a	n/a	-999	0	17	[0, 0, 0]	n/a	0	1	0	n/a	n/a	0.0	0	0	0	FR3	2	R1195E
1780.427	10.0	1848796	COUNTDOWN_START	n/a	n/a	n/a	-999	0	17	[0, 0, 0]	n/a	0	1	0	n/a	n/a	0.0	0	0	0	FR3	2	R1195E
1790.855	0.008	1859224	COUNTDOWN_END	n/a	n/a	n/a	-999	0	17	[0, 0, 0]	n/a	0	1	0	n/a	n/a	0.0	0	0	0	FR3	2	R1195E
1790.863	1.6	1859232	ORIENT	n/a	n/a	n/a	-999	0	17	[0, 0, 0]	n/a	0	1	0	n/a	n/a	0.0	0	0	0	FR3	2	R1195E
1792.48	2.233	1860849	ORIENT_OFF	n/a	n/a	n/a	-999	0	17	[0, 0, 0]	n/a	0	1	0	n/a	n/a	0.0	0	0	0	FR3	2	R1195E
1794.713	1.6	1863082	WORD	n/a	wordpools/wordpool.txt	GEESE	1	1	17	[0, 0, 0]	n/a	0	1	0	n/a	n/a	0.0	0	0	0	FR3	2	R1195E
1796.33	1.001	1864699	WORD_OFF	n/a	n/a	GEESE	1	0	17	[0, 0, 0]	n/a	0	1	0	n/a	n/a	0.0	0	0	0	FR3	2	R1195E
1797.331	1.6	1865700	WORD	n/a	wordpools/wordpool.txt	GOAT	2	0	17	[0, 0, 0]	n/a	0	1	0	n/a	n/a	0.0	0	0	0	FR3	2	R1195E
1798.922	0.0	1867291	STIM_ON	n/a	n/a	GOAT	2	0	17	[0, 0, 0]	n/a	1	1	500	3LD8	3LD9	1000.0	200	100	300	FR3	2	R1195E
1798.947	0.475	1867316	WORD_OFF	n/a	n/a	GOAT	2	0	17	[0, 0, 0]	n/a	1	1	500	3LD8	3LD9	1000.0	200	100	300	FR3	2	R1195E
1799.422	0.509	1867791	STIM_OFF	n/a	n/a	n/a	2	0	17	[0, 0, 0]	n/a	0	1	500	3LD8	3LD9	1000.0	200	100	300	FR3	2	R1195E
1799.931	1.6	1868300	WORD	n/a	wordpools/wordpool.txt	SPRING	3	1	17	[0, 0, 0]	n/a	0	1	0	n/a	n/a	0.0	0	0	0	FR3	2	R1195E
1801.548	0.8	1869917	WORD_OFF	n/a	n/a	SPRING	3	0	17	[0, 0, 0]	n/a	0	1	0	n/a	n/a	0.0	0	0	0	FR3	2	R1195E
1802.348	1.6	1870717	WORD	n/a	wordpools/wordpool.txt	COW	4	1	17	[0, 0, 0]	n/a	0	1	0	n/a	n/a	0.0	0	0	0	FR3	2	R1195E
1803.965	0.867	1872334	WORD_OFF	n/a	n/a	COW	4	0	17	[0, 0, 0]	n/a	0	1	0	n/a	n/a	0.0	0	0	0	FR3	2	R1195E
1804.832	1.6	1873201	WORD	n/a	wordpools/wordpool.txt	CART	5	0	17	[0, 0, 0]	n/a	0	1	0	n/a	n/a	0.0	0	0	0	FR3	2	R1195E
1806.449	0.9	1874817	WORD_OFF	n/a	n/a	CART	5	0	17	[0, 0, 0]	n/a	0	1	0	n/a	n/a	0.0	0	0	0	FR3	2	R1195E
1807.349	1.6	1875717	WORD	n/a	wordpools/wordpool.txt	SNOW	6	1	17	[0, 0, 0]	n/a	0	1	0	n/a	n/a	0.0	0	0	0	FR3	2	R1195E
1808.932	0.0	1877300	STIM_ON	n/a	n/a	SNOW	6	1	17	[0, 0, 0]	n/a	1	1	500	3LD8	3LD9	1000.0	200	100	300	FR3	2	R1195E
1808.966	0.466	1877334	WORD_OFF	n/a	n/a	SNOW	6	0	17	[0, 0, 0]	n/a	1	1	500	3LD8	3LD9	1000.0	200	100	300	FR3	2	R1195E
1809.432	0.484	1877800	STIM_OFF	n/a	n/a	n/a	6	0	17	[0, 0, 0]	n/a	0	1	500	3LD8	3LD9	1000.0	200	100	300	FR3	2	R1195E
